subject,session,trial,list,id,cue,target,onset,recalled,latency,fp,lp,advance,response
1,1,1,1,8,shower,belt,925909.028305444,1,925911.176813636,925911.352796571,925912.008744405,925912.328722213,belt
1,1,2,1,67,warehouse,mirror,925912.444809185,1,925914.312735427,925914.704667959,925915.464656984,925915.936642075,mirror
1,1,3,1,15,wall,bottom,925916.044677697,1,925917.280641415,925917.632610605,925918.360601607,925918.600567002,bottom
1,1,4,1,52,front,headache,925918.711217887,1,925919.880587202,925920.36853312,925921.280492903,925921.448486369,headache
1,1,5,1,34,trailer,dirty,925921.561089946,1,925922.848491078,925923.216446449,925923.680442977,925924.048408309,dirty
1,1,6,1,49,hair,frog,925924.160983814,1,925926.776342865,925927.792334179,925928.368304918,925928.712251435,brush
1,1,7,1,53,branch,high,925928.827453974,0,925934.152143721,,,0,""
1,1,8,1,77,soccer,pool,925934.260585941,1,925935.624090476,925935.992091428,925936.672038459,925937.232021205,pool
1,1,9,1,105,victor,steal,925937.343759367,1,925939.00799943,925940.095992557,925940.711946562,925941.479894267,steal
1,1,10,1,6,alarm,bear,925941.593696204,1,925942.679921071,925943.031886034,925943.543836279,925943.903836291,bear
1,1,11,1,17,pump,brush,925944.010137461,0,925945.495826115,,,0,""
1,1,12,1,19,circus,cake,925945.610117358,1,925947.039751743,925947.423734349,925947.855706895,925948.487700812,cake
1,1,13,1,60,goose,laugh,925948.593298059,1,925949.751671742,925949.943691872,925950.487630178,925950.815621,laugh
1,1,14,1,92,novel,sick,925950.926523026,0,925955.679500589,,,0,""
1,1,15,1,81,claim,puzzle,925955.792981354,1,925957.007463338,925957.647451553,925958.471397079,925958.623391987,puzzle
1,1,16,1,10,soda,blood,925958.742861533,1,925960.527404862,925960.775363953,925961.695325279,925961.847305094,blood
1,1,17,1,25,weed,clothes,925961.959392803,1,925963.119298999,925964.39125819,925965.2231956,925965.407194265,clothes
1,1,18,1,16,writer,breathe,925965.525907365,1,925966.535198428,925966.775188274,925967.639105897,925967.855117978,breathe
1,1,19,1,58,audience,jelly,925967.975805807,1,925968.903096749,925969.087093905,925969.671081582,925969.967093699,jelly
1,1,20,1,70,union,movie,925970.075737557,1,925971.295061882,925971.543027311,925972.046941299,925972.374990378,movie
1,1,21,2,86,comedy,rules,926204.882509106,1,926209.256100694,926209.712077869,926210.792027797,926211.0960158,rules
1,1,22,2,63,brand,lose,926211.215592504,1,926212.943971087,926213.14395684,926213.559913622,926213.855917287,lose
1,1,23,2,89,revolution,sheriff,926213.965451916,1,926215.167915587,926215.375908618,926216.919857187,926217.207842104,sheriff
1,1,24,2,27,department,copy,926217.315306015,1,926218.367804143,926218.775779002,926219.183788272,926219.431758833,copy
1,1,25,2,64,medal,loud,926219.548539767,1,926221.615733048,926221.815692237,926222.303664114,926222.663652354,loud
1,1,26,2,114,memory,thin,926222.781735787,1,926223.735654167,926224.007632074,926224.391668108,926224.879635457,thin
1,1,27,2,40,policeman,duck,926224.998312033,1,926227.327535626,926227.50352339,926227.8715014,926228.327486423,duck
1,1,28,2,54,strawberry,horse,926228.4481658,1,926229.535467078,926229.775486505,926231.119443889,926231.35143521,horse
1,1,29,2,93,state,small,926231.464746634,1,926232.263407973,926232.447400298,926233.015347761,926233.351338314,small
1,1,30,2,91,fraud,short,926233.464620158,1,926235.855307241,926235.983273672,926236.527245785,926236.847238686,short
1,1,31,2,41,impulse,eggs,926236.964476626,0,926239.159207102,,,0,""
1,1,32,2,116,retreat,tired,926239.281068841,1,926240.303149755,926240.503186823,926241.167167895,926241.519117766,tired
1,1,33,2,65,tragedy,math,926241.630972745,1,926243.023094842,926243.423076308,926244.095024512,926244.375016942,math
1,1,34,2,11,dream,board,926244.48081794,1,926245.32702338,926245.590993404,926246.158963808,926246.494954965,board
1,1,35,2,112,contact,television,926246.614066512,0,926248.054933183,,,0,""
1,1,36,2,83,post,rabbit,926248.1640262,0,926250.182943383,,,0,""
1,1,37,2,74,armor,pepper,926250.297274772,1,926254.638746691,926254.838723991,926255.670693096,926256.062725843,pepper
1,1,38,2,80,gang,push,926256.180327216,1,926257.414683864,926257.646697824,926258.062644343,926258.478604143,push
1,1,39,2,23,sailor,cheap,926258.596925739,1,926259.462609509,926259.6545744,926260.150546008,926260.526542768,cheap
1,1,40,2,20,campus,candle,926260.646840601,1,926261.934531814,926262.12653504,926262.80647543,926263.150470545,candle
1,1,41,3,98,liver,south,926498.753426419,1,926500.055568284,926500.287532438,926500.751501799,926501.143514926,south
1,1,42,3,111,wreck,teeth,926501.253342353,0,926503.055475011,,,0,""
1,1,43,3,51,dressing,groom,926503.169896956,1,926504.375423539,926504.751415167,926505.375387618,926505.695356672,groom
1,1,44,3,13,yard,bone,926505.803119117,0,926507.78333682,,,0,""
1,1,45,3,82,action,queen,926507.90305781,0,926509.559280936,,,0,""
1,1,46,3,117,document,train,926509.669647474,1,926514.079157864,926514.351139997,926516.01504953,926516.215046753,trail
1,1,47,3,109,salesman,tail,926516.336006551,1,926519.870981004,926520.062925671,926520.470978106,926520.743132296,tail
1,1,48,3,33,tree,dirt,926520.852477058,1,926523.606867297,926523.758861298,926524.158852726,926524.342847466,dirt
1,1,49,3,120,sofa,window,926524.452377265,1,926525.574792604,926525.798799889,926526.374747084,926526.646740385,window
1,1,50,3,106,turtle,street,926526.752231681,1,926528.070738857,926528.214703847,926529.134669399,926529.254660549,street
1,1,51,3,118,picture,uncle,926529.368786375,1,926530.438676117,926530.662632993,926531.238601318,926531.342630735,uncle
1,1,52,3,39,debate,drunk,926531.452018059,1,926533.878581987,926534.046538928,926535.67853194,926535.958449207,drunk
1,1,53,3,36,appeal,downstairs,926536.068503931,1,926537.582444298,926537.974418184,926539.342370235,926539.502393249,downstairs
1,1,54,3,88,illness,scratch,926539.618354045,1,926540.838365992,926541.054333098,926542.358279143,926543.198274543,scratch
1,1,55,3,94,thief,smell,926543.318225244,1,926544.782226601,926544.942239653,926545.654180782,926545.878175993,smell
1,1,56,3,59,judgment,land,926545.984765736,1,926548.046160403,926548.310136465,926548.662095995,926549.26208374,land
1,1,57,3,90,trousers,shirt,926549.367974086,1,926550.470081902,926550.662039548,926551.182035407,926551.478072578,shirt
1,1,58,3,1,permission,airplane,926551.584517733,1,926556.181907723,926556.373881971,926557.3978377,926557.541831366,airplane
1,1,59,3,48,click,forward,926557.65092408,0,926558.661839117,,,0,""
1,1,60,3,110,clue,tear,926558.767564048,0,926564.829659922,,,0,""
1,1,61,4,4,theft,answer,926801.657299235,0,926806.3105817,,,0,""
1,1,62,4,57,wealth,jeans,926806.423733142,1,926807.398549773,926807.622518723,926808.74247033,926809.662447655,jeans
1,1,63,4,61,enemy,lawn,926809.773591165,1,926810.838426363,926811.006441864,926811.374428025,926811.726384838,lawn
1,1,64,4,14,vampire,book,926811.840180436,1,926812.758364749,926813.094376734,926813.510329591,926813.862317797,book
1,1,65,4,84,burst,rain,926813.973413011,1,926815.662239074,926815.926265545,926816.878215234,926817.190224703,rain
1,1,66,4,115,massage,thread,926817.306606586,0,926819.894190248,,,0,""
1,1,67,4,69,navy,monkey,926820.006526685,1,926821.77413903,926822.622113333,926823.318045943,926823.918038215,monkey
1,1,68,4,37,shoe,draw,926824.023080353,1,926825.174025714,926825.493991749,926826.645949528,926829.333909874,draw
1,1,69,4,31,lieutenant,deer,926829.43943528,1,926830.589873828,926830.733833988,926831.27782542,926831.509797725,deer
1,1,70,4,42,kindness,elephant,926831.622672669,1,926832.429822139,926832.573828482,926833.989739684,926834.189721211,elephant
1,1,71,4,87,plate,scare,926834.305888777,0,926837.02167311,,,0,""
1,1,72,4,26,leather,cold,926837.139090653,1,926838.10162817,926838.341618317,926838.733590694,926839.01358584,cold
1,1,73,4,103,mate,star,926839.122377908,1,926839.989589663,926840.205559787,926840.621539811,926840.981526542,star
1,1,74,4,29,danger,cracker,926841.088952419,1,926842.021511014,926842.229526986,926843.069463524,926843.325450117,cracker
1,1,75,4,47,neighbor,forever,926843.438837911,1,926845.189425998,926845.365408932,926846.589376675,926846.83739674,forever
1,1,76,4,55,class,hungry,926846.955357922,0,926849.869305413,,,0,""
1,1,77,4,71,chase,nail,926849.988588413,1,926851.821244538,926852.053215031,926852.453187743,926852.797180443,nail
1,1,78,4,76,pirate,plane,926852.905100456,1,926853.893149154,926854.141148693,926854.725148444,926855.197134441,plane
1,1,79,4,24,print,church,926855.305029399,1,926856.541088503,926856.829078854,926857.669035918,926858.109029325,church
1,1,80,4,9,sweetheart,bird,926858.221543252,1,926859.652999326,926859.797014725,926860.316956552,926860.50095582,bird
1,1,81,5,43,ashes,fall,927086.461904076,1,927088.16631546,927088.334282362,927088.886266282,927089.11825398,fall
1,1,82,5,7,denial,beer,927089.228434577,0,927092.286180736,,,0,""
1,1,83,5,38,buzz,drug,927092.394977634,1,927094.022152756,927094.190095812,927094.630120914,927094.870101704,drug
1,1,84,5,73,employment,orange,927094.97820313,1,927100.557947647,927100.781924445,927102.077870457,927102.557860109,disappear
1,1,85,5,79,detail,pudding,927102.677861522,1,927103.80586478,927104.037823199,927104.805810144,927104.981736632,pudding
1,1,86,5,18,curtain,butter,927105.094427445,1,927107.021769099,927107.189736303,927107.917697724,927108.133679016,butter
1,1,87,5,44,scar,finish,927108.244294886,1,927110.99763256,927111.381602488,927114.941496187,927115.045499041,finished
1,1,88,5,45,chef,flag,927115.160668377,0,927117.589457873,,,0,""
1,1,89,5,28,squad,corn,927117.710586409,1,927118.701371715,927118.877391777,927119.237362509,927119.461363758,corn
1,1,90,5,62,boom,lightning,927119.577107521,1,927120.469351416,927120.669364637,927121.757329692,927122.093288852,lightning
1,1,91,5,113,trash,test,927122.21039609,1,927123.757256643,927125.037200474,927125.453185328,927125.589181375,test
1,1,92,5,96,customer,soap,927125.710248332,1,927126.637166184,927126.773176116,927127.157143025,927127.453130995,soap
1,1,93,5,66,cell,minus,927127.560143936,1,927129.421123313,927129.637099172,927131.141018594,927131.309012965,orange
1,1,94,5,119,cape,west,927131.42664573,1,927132.989007085,927133.268994081,927133.724941674,927133.860938023,west
1,1,95,5,104,junk,steak,927133.976567082,1,927134.940925381,927135.164910632,927135.68491464,927135.892882013,steak
1,1,96,5,2,driver,angel,927136.009815685,1,927136.996892716,927138.08481853,927138.708796717,927139.036789651,angle
1,1,97,5,35,garbage,disappear,927139.142985474,1,927142.948741888,927143.372693874,927144.556649675,927144.908617355,disappear
1,1,98,5,95,month,snake,927145.02608893,1,927145.980571174,927146.140533213,927146.604603695,927146.796572207,snake
1,1,99,5,50,furniture,ghost,927146.909278415,1,927148.412554587,927148.660520921,927149.34048546,927149.628478527,ghost
1,1,100,5,22,coast,chair,927149.74253704,1,927152.532428013,927152.780402498,927153.260368908,927153.564362948,chair
1,1,101,6,12,interest,boat,927386.065885348,0,927390.285451759,,,0,""
1,1,102,6,78,style,poor,927390.399008893,1,927391.517393878,927391.805383021,927392.445382707,927392.605380365,poor
1,1,103,6,99,port,spaghetti,927392.715578166,1,927396.989254605,927397.221234154,927399.605149446,927399.909139864,spaghetti
1,1,104,6,102,barrel,stamp,927400.015266864,0,927401.613131973,,,0,""
1,1,105,6,46,fountain,flowers,927401.731888842,1,927402.637097663,927402.997065678,927404.716998087,927404.813015699,flowers
1,1,106,6,101,hook,square,927404.931727893,1,927406.07692324,927406.228993006,927407.180921868,927407.300927808,square
1,1,107,6,68,moonlight,mistake,927407.414946779,1,927408.844936446,927409.060908985,927409.812855112,927409.964844284,mistake
1,1,108,6,85,unit,rock,927410.08150508,1,927411.012775061,927412.468805362,927412.924789178,927413.252751625,rock
1,1,109,6,107,pity,student,927413.364727648,1,927414.204735424,927414.372725569,927415.268697962,927415.572702265,student
1,1,110,6,30,center,cute,927415.681243493,1,927416.924661795,927417.124620079,927417.612626971,927417.73256922,cute
1,1,111,6,72,substance,nephew,927417.847843903,0,927420.604574113,,,0,""
1,1,112,6,108,powder,sweat,927420.714386447,1,927421.81252428,927421.94850282,927422.604499857,927422.924494568,sweat
1,1,113,6,5,link,bank,927423.030956023,1,927424.140492764,927424.356447795,927424.732426443,927425.028402339,bank
1,1,114,6,100,plenty,spider,927425.147564899,0,927427.756340818,,,0,""
1,1,115,6,21,type,card,927427.864105376,1,927430.020285789,927430.30827946,927430.780274512,927430.876274012,card
1,1,116,6,3,territory,animal,927430.997273656,1,927432.036216732,927432.260204397,927432.892179901,927433.196166395,animal
1,1,117,6,97,bluff,soup,927433.313853494,1,927434.61214159,927434.820149412,927435.16410438,927435.596096546,soup
1,1,118,6,75,gold,pizza,927435.713752252,1,927436.564094902,927436.780094305,927437.668031046,927438.156053635,pizza
1,1,119,6,32,concert,defense,927438.263677528,1,927439.540037146,927441.107941746,927446.691773063,927447.291758694,defense
1,1,120,6,56,instant,husband,927447.413273904,0,927449.163735213,,,0,""
2,1,1,1,94,circus,smell,54592.4643495354,1,54598.4711745117,54599.615146497,54600.8950897601,54601.3110516923,nasty
2,1,2,1,3,interest,animal,54601.4307203021,0,54608.2309818307,,,0,""
2,1,3,1,58,sofa,jelly,54608.3471458861,1,54609.7669287184,54610.2549112059,54610.8148852704,54611.0868737081,jelly
2,1,4,1,64,sweetheart,loud,54611.1970184422,1,54612.7028841185,54613.0308491345,54613.5988190768,54614.8788233149,loud
2,1,5,1,97,barrel,soup,54614.996877596,1,54617.4227663824,54617.7507736583,54618.318721867,54618.814694497,soup
2,1,6,1,81,gang,puzzle,54618.9300595382,0,54621.7507036276,,,0,""
2,1,7,1,40,kindness,duck,54621.8633226798,0,54625.966616478,,,0,""
2,1,8,1,73,concert,orange,54626.079814491,1,54628.3425407627,54628.5985314076,54630.3264608649,54630.5264453495,orange
2,1,9,1,22,union,chair,54630.6463032233,1,54633.2384515725,54633.5024036836,54634.0623862001,54634.5743759418,chair
2,1,10,1,34,shower,dirty,54634.6794893312,1,54637.1183633821,54637.4703730826,54638.1583228489,54638.5743373042,dirty
2,1,11,1,36,state,downstairs,54638.6959691889,1,54641.5982530958,54641.878276049,54643.9901709474,54644.4941630001,downstairs
2,1,12,1,70,trailer,movie,54644.6124421643,1,54646.2541641109,54646.5901364754,54647.3021052682,54647.6380978571,movie
2,1,13,1,54,curtain,horse,54647.7456590011,0,54653.718053617,,,0,""
2,1,14,1,56,clue,husband,54653.828720563,1,54657.6139363542,54657.9579193874,54658.9258758066,54659.5258651812,husband
2,1,15,1,98,comedy,south,54659.6452295196,1,54661.7898779654,54662.0458130687,54664.2058085046,54664.7497473461,south
2,1,16,1,26,employment,cold,54664.8617859282,1,54666.773748865,54666.9577213695,54667.4056885468,54667.7497065954,cold
2,1,17,1,82,denial,queen,54667.8615978715,1,54676.3815620593,54699.6370483019,54700.8850110721,54701.2609957281,horse
2,1,18,1,66,month,minus,54701.3770287778,1,54703.6210260587,54703.8689667934,54704.7889367767,54705.1169346952,minus
2,1,19,1,90,soda,shirt,54705.2268720539,1,54707.9249337123,54708.19690102,54708.8448599265,54709.1408359977,shirt
2,1,20,1,13,armor,bone,54709.2600696323,1,54710.6768752536,54710.956842967,54711.5728337567,54711.8528032813,bone
2,1,21,2,44,medal,finish,54988.6831049688,0,54997.4229807005,,,0,""
2,1,22,2,107,appeal,student,54997.5328012407,0,54998.9268987984,,,0,""
2,1,23,2,118,powder,uncle,54999.0327571697,1,55004.1668400329,55006.4387674956,55007.1027299302,55007.3906983511,uncle
2,1,24,2,6,victor,bear,55007.4991252198,0,55012.0546544467,,,0,""
2,1,25,2,75,contact,pizza,55012.1655840079,0,55014.6866285402,,,0,""
2,1,26,2,74,goose,pepper,55014.7988440102,0,55015.8785869612,,,0,""
2,1,27,2,19,plate,cake,55015.9987832163,0,55018.2465494779,,,0,""
2,1,28,2,116,trash,tired,55018.3653656449,1,55021.7424581144,55022.2304203775,55022.7823804527,55023.1503861349,tired
2,1,29,2,46,dream,flowers,55023.2652328884,1,55026.5103560941,55026.9263228561,55027.9102885386,55028.0942879084,flowers
2,1,30,2,91,brand,short,55028.2150066771,1,55030.1582905502,55030.4702429824,55031.1022789565,55031.2782223789,short
2,1,31,2,110,massage,tear,55031.39823752,1,55034.4222064385,55034.8861478638,55035.5101955064,55035.6622189112,tear
2,1,32,2,80,danger,push,55035.781397306,1,55042.5180395505,55042.7819835114,55043.3659687542,55043.6619650498,bear
2,1,33,2,25,boom,clothes,55043.7811515948,1,55045.3019365304,55046.4939396263,55050.7578078212,55050.9898032861,concert
2,1,34,2,65,hair,math,55051.0975002656,1,55052.6538279031,55053.3737952906,55053.885766619,55054.221748341,math
2,1,35,2,101,port,square,55054.3307448129,1,55056.4537685581,55056.8377355085,55057.8696827971,55060.2776612276,square
2,1,36,2,12,chase,boat,55060.3971592885,0,55070.2134723403,,,0,""
2,1,37,2,60,junk,laugh,55070.3301169513,0,,,,0,""
2,1,38,2,17,unit,brush,55080.3464280712,1,55089.0770724262,55097.7408993272,55097.7408993272,55106.348726105,t
2,1,39,2,109,front,tail,55106.4621722442,1,55112.1806092189,55112.5965844329,55113.2925711295,55113.7165567104,tail
2,1,40,2,86,impulse,rules,55113.8285297896,1,55118.0924740524,55118.4604564916,55119.388398808,55123.90837507,control
2,1,41,3,93,shoe,small,55366.2360146847,1,55367.6313697767,55367.8553083887,55368.4312754163,55368.759293861,small
2,1,42,3,20,theft,candle,55368.8692638202,0,,,,0,""
2,1,43,3,38,novel,drug,55378.8855544139,1,55384.1029711135,55384.8389833834,55385.5189490442,55385.7429202567,blood
2,1,44,3,27,illness,copy,55385.8519288029,1,55387.8709521038,55388.3028991509,55388.9829291072,55389.1108827734,copy
2,1,45,3,7,gold,beer,55389.2184940257,1,55392.454846186,55393.5268338388,55394.0147592755,55394.1747652764,beer
2,1,46,3,21,class,card,55394.2849803431,0,55397.6707508863,,,0,""
2,1,47,3,43,squad,fall,55397.7848620153,1,55399.1027199689,55399.5346612807,55400.0226304865,55400.2626320924,fall
2,1,48,3,10,action,blood,55400.3680998614,0,55404.1906106316,,,0,""
2,1,49,3,53,type,high,55404.3012525235,1,55407.9345393911,55421.1262539121,55422.6141718023,55422.7741663326,illness
2,1,50,3,45,enemy,flag,55422.8839494427,1,55425.1341679868,55425.4461149856,55426.0301168306,55426.2860944956,falg
2,1,51,3,71,memory,nail,55426.4004881624,0,55432.2620208329,,,0,""
2,1,52,3,41,mate,eggs,55432.3835926482,1,55434.1819781383,55434.4539345792,55435.373935352,55436.7099104331,eggs
2,1,53,3,23,plenty,cheap,55436.8167441029,0,55440.2538722157,,,0,""
2,1,54,3,4,tragedy,answer,55440.3666328386,1,55443.6938015571,55451.0616400107,55452.1895565486,55452.7015565534,answer
2,1,55,3,15,driver,bottom,55452.8161805368,0,55456.7975291231,,,0,""
2,1,56,3,84,cape,rain,55456.9160262277,1,55460.8374381798,55461.6454142558,55463.7173155777,55464.3253056599,rain
2,1,57,3,39,chef,drunk,55464.4324001338,1,55466.6453279249,55467.0772541439,55467.8772865633,55468.237228148,drunk
2,1,58,3,62,buzz,lightning,55468.3489455547,1,55469.9012165422,55470.2452382131,55471.653178006,55472.4051488273,lightning
2,1,59,3,96,print,soap,55472.5154444898,1,55478.3650375268,55478.7170698665,55479.1170267614,55479.5730175874,soap
2,1,60,3,68,style,mistake,55479.68186947,1,55485.3489425362,55499.4045973355,55501.3565420764,55501.8685393645,mistake
2,1,61,4,117,branch,train,55751.9719213048,0,55755.935383382,,,0,""
2,1,62,4,55,garbage,hungry,55756.055095761,1,55758.7673141892,55759.0072850057,55760.063232304,55760.4392266194,hungry
2,1,63,4,28,lieutenant,corn,55760.5549427197,1,55761.9272534798,55762.1831979406,55762.5911754656,55763.2712362112,corn
2,1,64,4,89,claim,sheriff,55763.3881775472,0,55768.7271111243,,,0,""
2,1,65,4,111,trousers,teeth,55768.8379456006,1,55770.3030872076,55770.6230246508,55771.3029984617,55771.6469824006,teeth
2,1,66,4,18,alarm,butter,55771.7545040014,0,55775.7749556875,,,0,""
2,1,67,4,59,debate,land,55775.887687634,0,55776.9189445767,,,0,""
2,1,68,4,49,department,frog,55777.0376415103,1,55781.4388565433,55781.822791195,55782.5987737984,55783.0387499276,frog
2,1,69,4,24,cell,church,55783.1541231188,1,55787.1427358828,55787.318721867,55788.8546162317,55789.3426838427,church
2,1,70,4,14,fraud,book,55789.4538923193,0,55792.5266158984,,,0,""
2,1,71,4,77,revolution,pool,55792.6371023342,1,55794.2385922377,55794.5345634792,55795.1025418735,55795.4465318495,pool
2,1,72,4,106,neighbor,street,55795.5536679795,1,55797.5345163896,55797.7584824706,55799.0704738423,55799.2144437146,street
2,1,73,4,61,thief,lawn,55799.3201949269,0,55806.8543288642,,,0,""
2,1,74,4,63,permission,lose,55806.9699139588,0,55808.7022888574,,,0,""
2,1,75,4,52,judgment,headache,55808.8198179081,1,55810.2142613933,55810.5982488699,55811.9741559487,55812.4221795732,headache
2,1,76,4,87,document,scare,55812.5363761277,1,55819.1980145688,55819.4220672826,55820.5979802175,55821.7099683896,scared
2,1,77,4,119,moonlight,west,55821.8193433896,1,55824.0059864189,55824.1659839678,55825.8299119907,55826.1179247846,west
2,1,78,4,50,campus,ghost,55826.2358743214,1,55828.7338705977,55829.5418478812,55830.2378071088,55830.4857750106,ghost
2,1,79,4,115,audience,thread,55830.6023698153,1,55833.12578694,55833.4617254965,55834.3497047239,55834.7896883995,thread
2,1,80,4,29,tree,cracker,55834.9022259505,1,55840.5096225827,55840.8856027109,55842.1895444743,55843.293573595,crackers
2,1,81,5,35,strawberry,disappear,56091.926171626,1,56095.0483972625,56095.3283420349,56101.0082642283,56103.3442106331,disappear
2,1,82,5,37,leather,draw,56103.4590694608,0,56108.5441296148,,,0,""
2,1,83,5,92,pump,sick,56108.6588577386,0,56112.5040521222,,,0,""
2,1,84,5,51,liver,groom,56112.6253794337,1,56116.0479800968,56116.5279630842,56117.1839118313,56117.6318723678,groom
2,1,85,5,31,yard,deer,56117.7418912278,1,56119.1839054923,56119.5038996846,56119.9518496561,56120.2078605254,deer
2,1,86,5,69,sailor,monkey,56120.3251450723,1,56121.8078139791,56122.1517979179,56124.9357235743,56125.3437246441,monkey
2,1,87,5,48,wall,forward,56125.4582583723,1,56126.6157408525,56127.8717351197,56129.3436380112,56129.4556364464,forward
2,1,88,5,99,center,spaghetti,56129.5747780147,1,56133.2556272096,56134.0235777124,56136.519500838,56136.9434972857,spaghetti
2,1,89,5,5,dressing,bank,56137.0578483907,1,56139.5034954987,56140.0954657526,56140.5994203751,56140.9274098415,bank
2,1,90,5,102,territory,stamp,56141.0410373964,1,56143.1354022782,56143.3273658308,56144.2233258433,56144.5753168286,stamp
2,1,91,5,105,retreat,steal,56144.6908904526,1,56147.6233044718,56149.5112683046,56150.5432047263,56152.6872277254,steal
2,1,92,5,104,vampire,steak,56152.807271241,1,56153.9432017682,56154.1591387671,56154.975102269,56155.2231226938,steak
2,1,93,5,32,wealth,defense,56155.3404905531,0,56160.823039321,,,0,""
2,1,94,5,1,soccer,airplane,56160.9402779857,1,56162.0869998841,56162.8629942599,56164.3589185929,56164.6629149924,airplane
2,1,95,5,95,wreck,snake,56164.7735004371,1,56168.958839748,56171.6868374249,56172.88676184,56173.0787311279,trousers
2,1,96,5,47,warehouse,forever,56173.1898662534,1,56174.83077198,56175.7507495098,56176.4466613459,56176.9106525776,dream
2,1,97,5,72,salesman,nephew,56177.0230422189,1,56178.3906684673,56178.8226571707,56180.1265916895,56180.6546208803,nephew
2,1,98,5,8,coast,belt,56180.7729063834,1,56182.1666142442,56183.3585630059,56183.8065135811,56184.0225251386,belt
2,1,99,5,113,hook,test,56184.1394643616,1,56187.9664887927,56193.4463809212,56193.4463809212,56193.870305829,z
2,1,100,5,83,post,rabbit,56193.9891017715,0,56198.9582638057,,,0,""
2,1,101,6,108,instant,sweat,56442.5133559444,0,56448.6011234497,,,0,""
2,1,102,6,79,policeman,pudding,56448.7131043772,0,56450.0730954664,,,0,""
2,1,103,6,114,link,thin,56450.1797018382,1,56451.5690780577,56451.8570576474,56452.3770160998,56453.0170361793,thin
2,1,104,6,78,pity,poor,56453.1296440628,1,56454.4570092899,56454.7929538836,56455.3129407105,56455.4729346372,poor
2,1,105,6,85,picture,rock,56455.5795331608,0,56459.8248903053,,,0,""
2,1,106,6,100,click,spider,56459.9460355973,0,56461.1128756303,,,0,""
2,1,107,6,33,weed,dirt,56461.2293460701,1,56462.2408389559,56465.2248073552,56465.6087281214,56466.5767255931,root
2,1,108,6,57,navy,jeans,56466.6958022622,1,56468.2967026399,56468.6647098313,56469.4966487887,56469.9286329642,jeans
2,1,109,6,120,substance,window,56470.0456666683,1,56472.0006535194,56473.1126374655,56474.6565781181,56475.0165547181,window
2,1,110,6,11,detail,board,56475.1288079202,0,56477.5765287826,,,0,""
2,1,111,6,88,burst,scratch,56477.6953781538,1,56479.1125109876,56479.4564864744,56481.160407772,56481.58439939,scratch
2,1,112,6,9,scar,bird,56481.6952100197,1,56485.536373411,56486.3443654855,56487.1443097628,56487.5122701664,bird
2,1,113,6,67,pirate,mirror,56487.6283681153,1,56488.9603049596,56489.3922858147,56490.2482335355,56490.4722026351,mirror
2,1,114,6,16,turtle,breathe,56490.578221896,1,56492.5282392829,56492.9282233449,56493.8641971582,56495.2561285933,breath
2,1,115,6,42,fountain,elephant,56495.3780879924,1,56497.1121484579,56497.47211238,56498.6960343899,56499.1120268097,elephant
2,1,116,6,76,writer,plane,56499.2279367019,0,56504.8959808406,,,0,""
2,1,117,6,30,furniture,cute,56505.0110361769,1,56506.4159281243,56506.8879315341,56507.5198944589,56507.7518591344,cute
2,1,118,6,112,ashes,television,56507.8609585394,1,56509.6478876683,56510.0478569393,56512.1598146239,56512.7197820475,television
2,1,119,6,103,bluff,star,56512.8274394838,0,56515.767756409,,,0,""
2,1,120,6,2,customer,angel,56515.8773348603,1,56518.815700283,56519.5916738307,56520.2236029476,56520.5035902817,angel
3,1,1,1,36,burst,downstairs,928815.355176387,1,928820.243552929,928820.499525033,928821.091521799,928821.923489395,bubble
3,1,2,1,29,port,cracker,928822.03822225,0,928826.275359878,,,0,""
3,1,3,1,49,denial,frog,928826.388034693,0,928830.019254053,,,0,""
3,1,4,1,84,medal,rain,928830.137850034,1,928832.579143224,928836.243074189,928836.763044088,928837.619021142,puddle
3,1,5,1,32,victor,defense,928837.73752868,1,928843.426876346,928843.730886687,928844.322815536,928844.79481904,defense
3,1,6,1,13,campus,bone,928844.903925942,1,928847.642728445,928847.914732311,928848.170698982,928848.642699166,bone
3,1,7,1,25,writer,clothes,928848.75372616,1,928852.50660411,928852.866560052,928853.570549443,928854.842516785,clothing
3,1,8,1,53,link,high,928854.953509972,1,928856.050486573,928856.434486385,928856.674438499,928856.882425493,high
3,1,9,1,19,style,cake,928857.003410647,0,928863.186289736,,,0,""
3,1,10,1,79,action,pudding,928863.303144925,0,928865.602210295,,,0,""
3,1,11,1,109,massage,tail,928865.719712056,0,928870.170088633,,,0,""
3,1,12,1,38,audience,drug,928870.286185566,1,928872.066017258,928872.489978903,928872.857953895,928873.273943579,drug
3,1,13,1,80,ashes,push,928873.386053625,1,928875.01792499,928875.289913462,928875.561877181,928875.905863844,push
3,1,14,1,87,wall,scare,928876.019266731,1,928877.761862632,928877.993839162,928878.489795074,928878.897778386,scare
3,1,15,1,28,post,corn,928879.01911852,0,928884.233658762,,,0,""
3,1,16,1,83,trash,rabbit,928884.352250517,1,928885.441626739,928885.665615611,928886.241594803,928886.809589053,rabbit
3,1,17,1,91,lieutenant,short,928886.918815489,0,928888.561538501,,,0,""
3,1,18,1,96,neighbor,soap,928888.668760325,1,928895.129340169,928895.489304562,928895.85731306,928896.321379013,soap
3,1,19,1,102,hair,stamp,928896.435055983,1,928899.569222192,928900.0892099,928900.529181876,928900.769175948,stamp
3,1,20,1,76,barrel,plane,928900.884866585,1,928905.529056909,928912.496824346,928912.800814764,928913.696798024,plane
3,1,21,2,35,sailor,disappear,929150.041021643,1,929153.401798325,929153.681742156,929155.729691647,929156.305659368,dissapear
3,1,22,2,56,judgment,husband,929156.424034996,1,929157.833601531,929158.169636456,929158.713626681,929158.929608275,husband
3,1,23,2,22,cell,chair,929159.040625308,0,929166.553360977,,,0,""
3,1,24,2,68,tree,mistake,929166.67364734,1,929168.793331202,929169.177307167,929169.601278774,929169.945262418,mistake
3,1,25,2,27,appeal,copy,929170.056828222,0,929175.481101682,,,0,""
3,1,26,2,94,goose,smell,929175.589942651,1,929176.641076701,929176.913079661,929177.321043654,929177.457035777,smell
3,1,27,2,74,hook,pepper,929177.57317195,1,929182.904906363,929212.01606225,929212.592025744,929212.824017971,pepper
3,1,28,2,82,novel,queen,929212.938340305,1,929219.039820566,929219.455847378,929219.951812346,929220.423797739,queen
3,1,29,2,105,instant,steal,929220.538023781,0,929223.103724847,,,0,""
3,1,30,2,78,pump,poor,929223.221269169,0,929227.487603313,,,0,""
3,1,31,2,57,shoe,jeans,929227.604407791,1,929229.295547263,929229.59150716,929229.935517669,929230.207512178,jeans
3,1,32,2,42,warehouse,elephant,929230.320897858,0,929231.967488826,,,0,""
3,1,33,2,73,click,orange,929232.087567815,1,929233.447424749,929233.767388973,929234.159388215,929234.839354866,orange
3,1,34,2,72,salesman,nephew,929234.954082891,1,929237.95928655,929238.727252668,929239.135220584,929239.495228143,nephew
3,1,35,2,86,trousers,rules,929239.603880453,0,929242.90312935,,,0,""
3,1,36,2,118,document,uncle,929243.020431585,0,929243.967075286,,,0,""
3,1,37,2,61,comedy,lawn,929244.08705074,1,929246.815044157,929247.175021228,929247.399014024,929247.838984189,lawn
3,1,38,2,70,clue,movie,929247.95352597,1,929250.39092766,929253.678818399,929254.01480533,929254.286805272,film
3,1,39,2,117,turtle,train,929254.403253562,0,929260.102657793,,,0,""
3,1,40,2,21,scar,card,929260.219725186,1,929261.814597715,929262.174576295,929262.478568524,929262.846551666,card
3,1,41,3,10,interest,blood,929496.893003359,0,929499.855617244,,,0,""
3,1,42,3,34,danger,dirty,929499.976205159,0,929505.551462618,,,0,""
3,1,43,3,106,illness,street,929505.659313204,0,929509.935331727,,,0,""
3,1,44,3,107,gold,student,929510.042487747,1,929512.503207047,929512.735240024,929513.35119916,929513.543168578,student
3,1,45,3,97,branch,soup,929513.658950074,1,929515.327164043,929515.447128328,929515.751138065,929515.863108654,soup
3,1,46,3,77,fraud,pool,929515.975548929,1,929521.430991521,929521.62297241,929522.142952874,929522.334945837,pool
3,1,47,3,33,pirate,dirt,929522.441937045,0,929532.238670744,,,0,""
3,1,48,3,98,pity,south,929532.358203378,1,929533.982625893,929534.150587664,929534.438589485,929534.83854952,south
3,1,49,3,5,contact,bank,929534.958045327,1,929536.462546723,929536.638508226,929536.822520474,929537.094513172,bank
3,1,50,3,12,department,boat,929537.207905191,1,929539.918420966,929540.158431941,929540.470416356,929540.646407139,boat
3,1,51,3,108,unit,sweat,929540.757828354,0,929544.126337024,,,0,""
3,1,52,3,16,buzz,breathe,929544.241010414,0,929545.342297488,,,0,""
3,1,53,3,23,sofa,cheap,929545.457617449,1,929546.558253123,929546.702222339,929547.030215877,929547.398211697,cheap
3,1,54,3,7,trailer,beer,929547.50752567,0,929553.662051622,,,0,""
3,1,55,3,110,dream,tear,929553.773967879,0,929557.765927094,,,0,""
3,1,56,3,4,mate,answer,929557.873758664,0,929561.061821187,,,0,""
3,1,57,3,8,liver,belt,929561.173613683,1,929562.445782362,929562.597771835,929563.109747134,929563.317741674,belt
3,1,58,3,6,wreck,bear,929563.423465699,0,929565.525689729,,,0,""
3,1,59,3,20,wealth,candle,929565.640108052,0,929568.237593729,,,0,""
3,1,60,3,17,chase,brush,929568.356657886,0,929570.133557369,,,0,""
3,1,61,4,39,curtain,drunk,929794.347073119,1,929799.382847333,929800.222814057,929800.582786902,929800.742784862,drunk
3,1,62,4,88,claim,scratch,929800.863443109,1,929806.390626108,929806.79061331,929807.646578894,929808.342529614,scratch
3,1,63,4,99,armor,spaghetti,929808.463153148,1,929810.398526832,929810.734500482,929811.638480154,929811.878469697,spaghetti
3,1,64,4,120,plenty,window,929811.996305912,0,929813.526416895,,,0,""
3,1,65,4,43,substance,fall,929813.646261645,1,929815.886336312,929816.302321166,929816.574319599,929816.990305057,fall
3,1,66,4,11,driver,board,929817.096086132,0,929819.694243133,,,0,""
3,1,67,4,116,territory,tired,929819.812667359,1,929824.150146354,929824.566094684,929825.038016385,929825.342040913,tired
3,1,68,4,119,impulse,west,929825.462447715,0,929826.966039022,,,0,""
3,1,69,4,92,dressing,sick,929827.079027463,1,929828.581984273,929828.845950675,929829.085948671,929829.341913229,sick
3,1,70,4,40,thief,duck,929829.46223853,1,929830.645893383,929830.925880983,929831.213885823,929831.909870653,duck
3,1,71,4,24,circus,church,929832.028819501,1,929833.309834008,929833.525840354,929834.069801299,929834.261771925,church
3,1,72,4,101,tragedy,square,929834.37869654,0,929835.445753685,,,0,""
3,1,73,4,58,soda,jelly,929835.561998224,0,929838.21369656,,,0,""
3,1,74,4,14,policeman,book,929838.328641618,0,929842.165589501,,,0,""
3,1,75,4,51,state,groom,929842.278353665,0,929845.645440904,,,0,""
3,1,76,4,62,bluff,lightning,929845.761567419,0,929847.093452155,,,0,""
3,1,77,4,52,yard,headache,929847.211509327,1,929854.093251724,929854.333195688,929854.83719812,929854.933218448,bored
3,1,78,4,2,chef,angel,929855.044522544,0,929857.237120724,,,0,""
3,1,79,4,100,employment,spider,929857.344402316,0,929859.037078525,,,0,""
3,1,80,4,44,fountain,finish,929859.144323894,0,929860.461049528,,,0,""
3,1,81,5,46,detail,flowers,930089.401229934,0,930091.182277796,,,0,""
3,1,82,5,75,powder,pizza,930091.301152388,0,930097.414109436,,,0,""
3,1,83,5,48,type,forward,930097.534173936,1,930100.789969757,930100.997986333,930101.637961569,930101.845954599,forward
3,1,84,5,54,retreat,horse,930101.967374424,1,930103.405943382,930103.797885272,930104.149906682,930104.41388214,horse
3,1,85,5,63,vampire,lose,930104.533901966,1,930105.533824691,930105.757824732,930106.045806932,930106.133810021,lose
3,1,86,5,113,junk,test,930106.283829596,0,930110.157728018,,,0,""
3,1,87,5,1,furniture,airplane,930110.267036257,1,930112.837647882,930113.125633704,930113.453635392,930113.853573694,plane
3,1,88,5,67,boom,mirror,930113.966835614,1,930115.661558695,930115.885487197,930116.453517066,930116.59749413,mirror
3,1,89,5,103,weed,star,930116.716755698,0,930120.077446654,,,0,""
3,1,90,5,47,class,forever,930120.199907572,1,930121.133366899,930121.333388573,930121.837359612,930121.989366895,forever
3,1,91,5,93,soccer,small,930122.099855684,0,930123.317345038,,,0,""
3,1,92,5,37,debate,draw,930123.433130759,1,930124.565298695,930124.797265264,930125.085276442,930125.357266725,draw
3,1,93,5,30,permission,cute,930125.466340423,1,930126.397238218,930126.557216255,930126.85322626,930126.917212645,cute
3,1,94,5,31,print,deer,930127.033013761,1,930128.869187388,930130.26112807,930130.677114434,930130.845106088,deer
3,1,95,5,71,garbage,nail,930130.966123239,0,930136.061006484,,,0,""
3,1,96,5,69,picture,monkey,930136.182587498,1,930138.004912672,930138.220900907,930138.89287175,930139.172861765,monkey
3,1,97,5,66,squad,minus,930139.282476083,1,930140.932834188,930141.148819404,930141.628767401,930141.972751951,minus
3,1,98,5,26,kindness,cold,930142.08231103,1,930143.644747244,930143.828737457,930144.236690583,930144.412714871,cold
3,1,99,5,104,shower,steak,930144.532233921,1,930145.788685369,930145.99667357,930146.396637831,930146.828638449,steak
3,1,100,5,41,month,eggs,930146.948764829,0,930148.684597694,,,0,""
3,1,101,6,81,strawberry,puzzle,930383.638754841,0,930385.613640898,,,0,""
3,1,102,6,65,center,math,930385.722027275,0,930392.133459569,,,0,""
3,1,103,6,15,union,bottom,930392.25505145,1,930393.589427084,930393.725411963,930394.165358583,930394.389380055,bottom
3,1,104,6,114,revolution,thin,930394.504965647,0,930396.98133577,,,0,""
3,1,105,6,112,concert,television,930397.088182692,0,930405.077088052,,,0,""
3,1,106,6,18,brand,butter,930405.187809268,0,930411.244891047,,,0,""
3,1,107,6,50,theft,ghost,930411.354247281,1,930412.316863883,930412.588856279,930412.88482825,930413.060832918,ghost
3,1,108,6,64,sweetheart,loud,930413.170847494,0,930417.844695265,,,0,""
3,1,109,6,60,cape,laugh,930417.953980864,0,930419.220668178,,,0,""
3,1,110,6,111,coast,teeth,930419.337232984,1,930420.836624295,930420.996613501,930421.412587489,930421.788577607,teeth
3,1,111,6,90,moonlight,shirt,930421.903780147,1,930424.212521443,930424.428510583,930424.772491511,930425.004478304,shirt
3,1,112,6,95,leather,snake,930425.120315341,1,930428.476333598,930428.708390421,930429.052354445,930429.132337578,snake
3,1,113,6,59,plate,land,930429.253504448,0,930430.908286221,,,0,""
3,1,114,6,85,front,rock,930431.020090188,1,930432.052267813,930432.244264399,930432.596259849,930433.916189964,rock
3,1,115,6,45,customer,flag,930434.036631178,0,930442.187977401,,,0,""
3,1,116,6,89,enemy,sheriff,930442.30292759,1,930443.411967783,930443.56394488,930444.443897888,930444.811878313,sheriff
3,1,117,6,9,navy,bird,930444.919497377,1,930446.58787797,930446.875841455,930447.547807469,930447.763778498,bird
3,1,118,6,55,memory,hungry,930447.886040193,1,930450.307752423,930450.57171792,930451.011717968,930451.251714153,hungry
3,1,119,6,115,alarm,thread,930451.369198708,0,930453.907658365,,,0,""
3,1,120,6,3,gang,animal,930454.019112483,1,930456.051591057,930456.307555011,930456.819551741,930457.459453324,animal
5,1,1,1,54,style,horse,58395.2733084563,0,58401.0169504521,,,0,""
5,1,2,1,110,chase,tear,58401.1230931722,0,58402.8889315848,,,0,""
5,1,3,1,31,medal,deer,58403.0063495523,1,58408.8088354616,58409.4888165171,58410.0007736583,58410.2007675004,deer
5,1,4,1,53,employment,high,58410.3060816244,0,58412.5767621177,,,0,""
5,1,5,1,91,furniture,short,58412.6893298543,0,58414.0727564815,,,0,""
5,1,6,1,3,bluff,animal,58414.1892930278,0,58416.3526251859,,,0,""
5,1,7,1,64,armor,loud,58416.4725398088,0,58418.9285738003,,,0,""
5,1,8,1,23,dressing,cheap,58419.0391061183,0,58420.9045230787,,,0,""
5,1,9,1,18,chef,butter,58421.0223748141,1,58422.9365337572,58423.30450865,58424.9364616135,58425.0644445598,butter
5,1,10,1,32,navy,defense,58425.1721934586,1,58426.7604653662,58426.9844456344,58428.8324001942,58429.0323955456,defense
5,1,11,1,60,contact,laugh,58429.138745943,0,58430.70439159,,,0,""
5,1,12,1,74,goose,pepper,58430.8220142162,0,58431.9843454181,,,0,""
5,1,13,1,9,territory,bird,58432.1052830328,1,58433.4883093981,58433.8403133633,58434.2722685606,58434.4882595918,bird
5,1,14,1,99,junk,spaghetti,58434.6051779867,0,58436.7122784977,,,0,""
5,1,15,1,58,barrel,jelly,58436.8217449602,1,58438.5842031833,58441.1441334785,58441.6481095329,58441.8881162703,jelly
5,1,16,1,43,squad,fall,58442.0049392785,0,58445.1120895959,,,0,""
5,1,17,1,21,lieutenant,card,58445.2214956871,1,58447.7120207122,58448.0959716641,58448.8159372404,58449.1119329323,card
5,1,18,1,114,department,thin,58449.2213468718,0,58450.9839596454,,,0,""
5,1,19,1,92,ashes,sick,58451.1046147224,0,58451.9279245069,,,0,""
5,1,20,1,50,retreat,ghost,58452.0378998995,0,58452.8079045361,,,0,""
5,1,21,2,93,enemy,small,58458.9543134092,0,58461.8877422701,,,0,""
5,1,22,2,48,audience,forward,58462.0041988244,0,58462.7276722756,,,0,""
5,1,23,2,98,print,south,58462.8374916084,0,58464.7757139511,,,0,""
5,1,24,2,75,picture,pizza,58464.8874156613,0,58466.9276217448,,,0,""
5,1,25,2,5,customer,bank,58467.0373393519,0,58469.8155526752,,,0,""
5,1,26,2,20,neighbor,candle,58469.9372419127,0,58471.2715489346,,,0,""
5,1,27,2,63,leather,lose,58471.3871859485,0,58472.4155251459,,,0,""
5,1,28,2,87,comedy,scare,58472.5371512953,1,58475.1834336906,58476.0154342267,58476.6073918025,58476.8233909839,giggle
5,1,29,2,96,link,soap,58476.9369548471,0,58477.8154379697,,,0,""
5,1,30,2,52,alarm,headache,58477.9369503192,0,58478.727391549,,,0,""
5,1,31,2,65,month,math,58478.8369238162,0,58479.855383551,,,0,""
5,1,32,2,47,cape,forever,58479.9702076652,0,58481.0713299075,,,0,""
5,1,33,2,70,class,movie,58481.186807843,0,58482.5113105645,,,0,""
5,1,34,2,35,powder,disappear,58482.6201108296,0,58483.7912770705,,,0,""
5,1,35,2,45,danger,flag,58483.9033663645,0,58484.9352611301,,,0,""
5,1,36,2,39,moonlight,drunk,58485.0533591803,0,58486.399234854,,,0,""
5,1,37,2,95,wealth,snake,58486.5199409448,0,58488.2551982715,,,0,""
5,1,38,2,101,mate,square,58488.3699007375,0,58489.4311598053,,,0,""
5,1,39,2,111,hook,teeth,58489.5531738404,0,58490.6711230754,,,0,""
5,1,40,2,104,curtain,steak,58490.7864772497,0,58492.1351034402,,,0,""
5,1,41,3,86,turtle,rules,58498.2862798355,0,58500.9829390684,,,0,""
5,1,42,3,119,thief,west,58501.1027936219,0,58505.758832926,,,0,""
5,1,43,3,36,cell,downstairs,58505.8692629146,0,58506.9427794709,,,0,""
5,1,44,3,72,center,nephew,58507.0525505066,0,58509.6387537913,,,0,""
5,1,45,3,37,action,draw,58509.7524613382,0,58510.9347223161,,,0,""
5,1,46,3,44,concert,finish,58511.0523715057,0,58513.222691039,,,0,""
5,1,47,3,77,strawberry,pool,58513.3356514909,1,58515.64663436,58515.9025688595,58516.4946040125,58516.7905969877,pool
5,1,48,3,97,circus,soup,58516.902180672,0,58519.0625205262,,,0,""
5,1,49,3,66,dream,minus,58519.1687625572,0,58520.0305397316,,,0,""
5,1,50,3,78,type,poor,58520.1520692869,0,58520.982506508,,,0,""
5,1,51,3,94,plate,smell,58521.1020329434,0,58521.9904897079,,,0,""
5,1,52,3,73,soda,orange,58522.1019979281,1,58523.1264630986,58523.342458054,58524.4384369627,58524.6463886487,orange
5,1,53,3,51,soccer,groom,58524.7684962594,0,58526.2224060864,,,0,""
5,1,54,3,76,gold,plane,58526.3351754632,0,58527.3103679873,,,0,""
5,1,55,3,33,revolution,dirt,58527.418470662,1,58530.2383561859,58530.5103077971,58531.1422550253,58531.6302625669,dirty
5,1,56,3,4,trailer,answer,58531.7516161399,0,58534.1102322726,,,0,""
5,1,57,3,40,trash,duck,58534.2182326179,0,58535.1742352163,,,0,""
5,1,58,3,113,novel,test,58535.2848605061,0,58536.8061905946,,,0,""
5,1,59,3,8,appeal,belt,58536.918077041,1,58538.1501724205,58538.7741352414,58539.4541072412,58540.0700850511,belt
5,1,60,3,83,fountain,rabbit,58540.1846719061,1,58543.2540708373,58543.5020281741,58544.4139781311,58544.7099940474,rabbit
5,1,61,4,103,victor,star,58550.8509710121,0,58553.4138504458,,,0,""
5,1,62,4,28,burst,corn,58553.5341076758,1,58554.909831226,58555.4778497672,58555.8537734482,58556.1417454915,corn
5,1,63,4,120,permission,window,58556.2507751676,0,58557.7257428086,,,0,""
5,1,64,4,102,pity,stamp,58557.8340148248,0,58558.541747363,,,0,""
5,1,65,4,107,trousers,student,58558.6506692763,0,58562.1656643017,,,0,""
5,1,66,4,117,policeman,train,58562.2838501922,0,58563.4856313269,,,0,""
5,1,67,4,68,post,mistake,58563.6004919658,0,58564.9736011364,,,0,""
5,1,68,4,81,theft,puzzle,58565.0837603597,0,58567.1415797722,,,0,""
5,1,69,4,56,front,husband,58567.2503465313,0,58568.2455485216,,,0,""
5,1,70,4,112,massage,television,58568.3669748421,1,58570.7094679114,58571.3734695873,58573.9254212106,58574.2213900373,television
5,1,71,4,82,unit,queen,58574.3334207711,0,58575.4453971708,,,0,""
5,1,72,4,29,sailor,cracker,58575.5666936929,1,58577.101394215,58577.6053349521,58578.9492633493,58579.1892583143,cracker
5,1,73,4,106,substance,street,58579.2998784726,1,58582.9892499831,58583.2132085177,58583.6292244823,58583.8451946854,drug
5,1,74,4,59,buzz,land,58583.9664012543,0,58585.9651959411,,,0,""
5,1,75,4,2,salesman,angel,58586.0829513842,0,58586.9171563786,,,0,""
5,1,76,4,108,coast,sweat,58587.0329527727,0,58587.9411636328,,,0,""
5,1,77,4,42,shoe,elephant,58588.0496046887,0,58588.9010918755,,,0,""
5,1,78,4,41,sofa,eggs,58589.0162072813,0,58589.8930857345,,,0,""
5,1,79,4,61,scar,lawn,58589.9995125017,1,58591.2530418083,58591.6850585843,58592.3250243296,58592.6290201254,lawn
5,1,80,4,100,detail,spider,58592.7494162095,0,58593.8690250517,,,0,""
5,1,81,5,24,claim,church,58600.0158109436,0,58600.74086401,,,0,""
5,1,82,5,62,campus,lightning,58600.8491242538,1,58603.1648453649,58603.56483969,58606.524737747,58606.7887197419,lightning
5,1,83,5,118,tree,uncle,58606.8988677965,0,58607.9407186963,,,0,""
5,1,84,5,69,weed,monkey,58608.0488418972,1,58609.2366736375,58610.0766649199,58611.5646178255,58611.7566109601,monkey
5,1,85,5,88,instant,scratch,58611.8653855674,0,58613.5645976011,,,0,""
5,1,86,5,27,hair,copy,58613.6819859866,0,58614.7885663988,,,0,""
5,1,87,5,67,click,mirror,58614.8986039739,0,58615.5165803759,,,0,""
5,1,88,5,10,vampire,blood,58615.6318844421,1,58617.3165400479,58617.6445150252,58618.4684819514,58618.6924670493,blood
5,1,89,5,6,port,bear,58618.7984331835,0,58619.8044654845,,,0,""
5,1,90,5,79,driver,pudding,58619.9150856427,0,58621.2444506694,,,0,""
5,1,91,5,116,judgment,tired,58621.3650323952,0,58622.0044351781,,,0,""
5,1,92,5,38,yard,drug,58622.1150251507,1,58625.1803743746,58625.4363707547,58625.8203322716,58626.0203321509,lawn
5,1,93,5,15,denial,bottom,58626.1315306662,0,58627.172367328,,,0,""
5,1,94,5,85,union,rock,58627.2814899759,0,58628.2283140226,,,0,""
5,1,95,5,1,interest,airplane,58628.34811394,0,58628.9402882488,,,0,""
5,1,96,5,13,warehouse,bone,58629.048086954,1,58630.4442519271,58630.7562592972,58631.1482514054,58631.3241972427,bone
5,1,97,5,84,boom,rain,58631.4313068094,0,58634.8041325368,,,0,""
5,1,98,5,46,pump,flowers,58634.9145263026,0,58636.612154495,,,0,""
5,1,99,5,14,sweetheart,book,58636.7311264199,0,58637.8921071156,,,0,""
5,1,100,5,71,fraud,nail,58637.9977852786,0,58640.1800550103,,,0,""
5,1,101,6,16,debate,breathe,58646.3307912988,0,58647.139901148,,,0,""
5,1,102,6,89,clue,sheriff,58647.2474121839,1,58650.0198648769,58650.7638253313,58652.0037907144,58652.4918018783,sheriff
5,1,103,6,34,writer,dirty,58652.597232217,0,58653.619790258,,,0,""
5,1,104,6,19,kindness,cake,58653.7305112363,0,58654.747719172,,,0,""
5,1,105,6,7,wall,beer,58654.8637993113,0,58656.035740116,,,0,""
5,1,106,6,90,garbage,shirt,58656.1471070673,1,58658.9556524448,58659.227679822,58659.9236203345,58660.1556001029,trash
5,1,107,6,55,impulse,hungry,58660.2635850535,0,58661.083618789,,,0,""
5,1,108,6,17,gang,brush,58661.1969118869,0,58661.8595953553,,,0,""
5,1,109,6,109,branch,tail,58661.9802202466,0,58662.8115705837,,,0,""
5,1,110,6,57,tragedy,jeans,58662.9301805827,0,58663.6595025042,,,0,""
5,1,111,6,11,wreck,board,58663.7801213584,0,58664.4915606949,,,0,""
5,1,112,6,49,state,frog,58664.613442215,0,58665.3075758143,,,0,""
5,1,113,6,115,memory,thread,58665.430061953,0,58666.1875431655,,,0,""
5,1,114,6,30,brand,cute,58666.2967159216,0,58666.987512195,,,0,""
5,1,115,6,26,document,cold,58667.0966879697,0,58667.8194931104,,,0,""
5,1,116,6,80,plenty,push,58667.9300239191,0,58668.6114964478,,,0,""
5,1,117,6,25,liver,clothes,58668.7299857041,1,58669.8033733676,58670.1954424492,58670.7474091653,58670.9793702186,shirt
5,1,118,6,105,shower,steal,58671.096552738,0,58671.9314115536,,,0,""
5,1,119,6,22,pirate,chair,58672.0465169981,0,58673.3633724861,,,0,""
5,1,120,6,12,illness,boat,58673.479802779,1,58675.9953224311,58676.1472758051,58676.4752860996,58676.6672584061,sick
4,1,1,1,1,hook,airplane,933556.881277129,1,933559.852658094,933560.252663226,933561.492583235,933561.764588729,airplane
4,1,2,1,118,warehouse,uncle,933561.880982221,1,933563.628533309,933563.92444535,933564.596442694,933564.876440883,uncle
4,1,3,1,26,fountain,cold,933564.997468985,1,933566.244419089,933566.492402427,933566.900379124,933567.180378219,cold
4,1,4,1,68,action,mistake,933567.297330436,1,933568.508332881,933569.820282532,933570.772187208,933570.972206828,mistake
4,1,5,1,64,trailer,loud,933571.080441909,1,933574.428097739,933574.732074014,933575.572035981,933576.315996257,loud
4,1,6,1,67,permission,mirror,933576.43015002,1,933577.531948142,933578.019927556,933578.603906245,933578.85187932,mirror
4,1,7,1,8,hair,belt,933578.963338767,1,933586.25161007,933586.867570708,933587.275550424,933587.483546138,belt
4,1,8,1,100,link,spider,933587.596185215,0,933593.947291195,,,0,""
4,1,9,1,98,buzz,south,933594.062491473,1,933595.219263787,933595.755268194,933596.243157958,933596.579160554,south
4,1,10,1,76,dressing,plane,933596.695656374,0,933602.690926982,,,0,""
4,1,11,1,3,gold,animal,933602.811959009,1,933604.882850976,933605.67479278,933606.762750762,933607.482716653,animal
4,1,12,1,27,revolution,copy,933607.59504724,1,933609.882631229,933610.282638776,933610.682582933,933610.930547255,copy
4,1,13,1,66,detail,minus,933611.044842887,1,933612.714508437,933614.002454345,933614.610423194,933615.698363669,minus
4,1,14,1,29,medal,cracker,933615.811244831,1,933617.85829847,933618.4822838,933619.482182982,933619.730191675,cracker
4,1,15,1,16,enemy,breathe,933619.844347249,1,933621.474164629,933621.73015002,933622.538095626,933622.770091159,breathe
4,1,16,1,65,pirate,math,933622.877484681,1,933624.130047994,933624.338030427,933624.842006701,933625.089990643,math
4,1,17,1,95,garbage,snake,933625.210708141,1,933626.481966555,933626.865885478,933627.28189562,933627.51386127,snake
4,1,18,1,35,strawberry,disappear,933627.627263727,0,,,,0,""
4,1,19,1,32,salesman,defense,933637.743333032,1,933639.785391651,933640.785331583,933641.681271696,933642.01728546,defense
4,1,20,1,62,unit,lightning,933642.126402548,0,933649.593010655,,,0,""
4,1,21,2,86,sweetheart,rules,933891.445570648,1,933894.230914305,933894.486941049,933895.0788907,933895.182898669,rules
4,1,22,2,44,vampire,finish,933895.295378973,1,933896.750848501,933897.022826828,933897.45480757,933897.718790184,finish
4,1,23,2,104,novel,steak,933897.828588246,1,933905.326501253,933910.086305352,933910.638261946,933911.014219264,stamp
4,1,24,2,106,audience,street,933911.127819735,1,933912.654191494,933912.846159558,933914.566102206,933914.846089529,street
4,1,25,2,57,tree,jeans,933914.960944792,1,933916.950007546,933917.805982674,933918.269945063,933918.533936732,jeans
4,1,26,2,38,circus,drug,933918.644041172,1,933919.7818923,933920.013871231,933920.389844849,933920.949848169,drug
4,1,27,2,54,type,horse,933921.060586797,1,933923.165736666,933923.517730689,933924.165675994,933924.501676175,horse
4,1,28,2,11,illness,board,933924.610372182,1,933928.14154004,933928.389542697,933929.09348456,933929.397488605,board
4,1,29,2,102,interest,stamp,933929.510099912,0,933933.677323493,,,0,""
4,1,30,2,88,branch,scratch,933933.793170032,1,933935.445259138,933935.605248574,933936.61319901,933936.885189411,scratch
4,1,31,2,75,print,pizza,933936.992994657,0,933941.317018926,,,0,""
4,1,32,2,34,document,dirty,933941.426085605,0,933945.012869691,,,0,""
4,1,33,2,13,lieutenant,bone,933945.125887289,1,933947.228769054,933947.924736334,933948.22069335,933948.412691298,bone
4,1,34,2,4,driver,answer,933948.525726403,1,933950.172653566,933950.308648314,933950.956581243,933951.172577198,answer
4,1,35,2,117,turtle,train,933951.292189622,1,933952.388555344,933952.892512602,933953.428524254,933953.684489722,train
4,1,36,2,85,wreck,rock,933953.792046847,1,933954.788460563,933955.060444022,933955.396412811,933955.580424402,rock
4,1,37,2,37,writer,draw,933955.691935464,1,933956.524391621,933956.732370431,933957.372340246,933958.204268767,draw
4,1,38,2,59,mate,land,933958.325134776,1,933959.900222766,933960.084234055,933960.380195297,933960.55617616,land
4,1,39,2,74,plate,pepper,933960.674991397,0,933965.564020948,,,0,""
4,1,40,2,71,instant,nail,933965.674726071,0,933969.867845694,,,0,""
4,1,41,3,73,massage,orange,934217.160434363,1,934220.51353829,934220.721521628,934222.097441818,934223.201413565,orange
4,1,42,3,105,department,steal,934223.310130701,1,934225.425303209,934225.769313592,934226.457222071,934226.649273748,steal
4,1,43,3,82,bluff,queen,934226.759916689,0,934229.977146911,,,0,""
4,1,44,3,78,debate,poor,934230.092995865,1,934231.657081107,934231.84905219,934232.225028525,934232.92901627,poor
4,1,45,3,23,leather,cheap,934233.042921911,1,934234.440937245,934234.720906457,934235.184903257,934235.392924326,cheap
4,1,46,3,111,port,teeth,934235.509422258,1,934237.640844879,934237.920813789,934238.504776782,934238.776767183,teeth
4,1,47,3,96,trash,soap,934238.892563011,0,934245.65650729,,,0,""
4,1,48,3,110,dream,tear,934245.775480395,1,934248.400420176,934248.608430982,934249.160354976,934250.664309819,tear
4,1,49,3,30,theft,cute,934250.775225029,1,934252.256209967,934252.736210571,934253.24814362,934253.464151951,cute
4,1,50,3,113,burst,test,934253.575062332,1,934255.912065864,934256.136055118,934256.680044976,934257.296022216,test
4,1,51,3,15,wall,bottom,934257.408179842,1,934259.455932265,934259.711913429,934260.239881373,934260.799875638,bottom
4,1,52,3,31,cape,deer,934260.907984243,1,934262.063823538,934262.231818045,934262.623801805,934262.783796372,snake
4,1,53,3,112,contact,television,934262.891191403,1,934269.03154487,934269.239542999,934270.743446829,934271.295432401,television
4,1,54,3,120,substance,window,934271.407385976,1,934272.791382475,934272.93536056,934273.359344683,934273.69532132,window
4,1,55,3,58,customer,jelly,934273.807251049,1,934276.2232627,934276.503229195,934276.967198225,934277.335178846,jelly
4,1,56,3,101,cell,square,934277.457042772,1,934278.591131939,934278.807139364,934280.407109783,934280.719049473,square
4,1,57,3,19,shoe,cake,934280.840188053,1,934281.95901476,934282.111010595,934282.478979746,934282.790974675,cake
4,1,58,3,36,campus,downstairs,934282.906731263,1,934284.07094298,934284.238913942,934285.390837031,934285.606852607,downstairs
4,1,59,3,21,ashes,card,934285.723244589,1,934286.838756678,934286.990787829,934287.806766277,934287.958759395,card
4,1,60,3,17,fraud,brush,934288.073107549,0,934296.886347007,,,0,""
4,1,61,4,69,retreat,monkey,934536.875622264,1,934540.980370069,934542.62031151,934543.428235383,934544.172211658,monkey
4,1,62,4,48,victor,forward,934544.291926107,1,934548.052051375,934548.412031151,934549.108053669,934549.364020043,forward
4,1,63,4,99,territory,spaghetti,934549.474958496,1,934551.107903046,934551.483932204,934552.627877388,934553.099867488,spaghetti
4,1,64,4,70,post,movie,934553.208074497,1,934554.843797579,934555.275787377,934555.779728033,934556.019721694,movie
4,1,65,4,40,goose,duck,934556.141255396,1,934557.179693924,934557.507686015,934557.795648525,934558.003659935,duck
4,1,66,4,108,thief,sweat,934558.124461952,1,934559.899620574,934560.147598177,934560.747536599,934560.963535271,sweat
4,1,67,4,7,navy,beer,934561.074311932,1,934561.963503879,934562.187514564,934562.611478765,934562.771468804,beer
4,1,68,4,45,shower,flag,934562.890892571,0,934571.267152646,,,0,""
4,1,69,4,39,sofa,drunk,934571.390368559,1,934572.587082013,934572.83506686,934574.05102116,934574.322997978,drunk
4,1,70,4,55,center,hungry,934574.440221256,1,934578.642829545,934579.850765794,934580.706732168,934581.194686528,hungry
4,1,71,4,109,tragedy,tail,934581.306487368,1,934583.802596215,934583.986618371,934584.458576474,934584.626580639,tail
4,1,72,4,80,neighbor,push,934584.739642006,1,934585.770529445,934585.962525582,934586.338509463,934586.538492559,push
4,1,73,4,46,impulse,flowers,934586.656186121,1,934588.138429171,934588.386429714,934589.48237677,934589.690345921,flowers
4,1,74,4,83,chase,rabbit,934589.806018292,1,934592.194269371,934592.394206586,934593.026199101,934593.202201093,rabbit
4,1,75,4,5,chef,bank,934593.322468834,1,934598.018028615,934598.35400978,934598.68199191,934598.937991186,bank
4,1,76,4,22,danger,chair,934599.055485526,1,934600.233938241,934600.401936974,934600.825907815,934601.121896224,chair
4,1,77,4,116,squad,tired,934601.238701742,1,934602.617815207,934630.616679043,934631.40857104,934631.640624227,retreat
4,1,78,4,93,moonlight,small,934631.75363941,1,934632.984582994,934635.128485315,934635.728478372,934635.944451689,small
4,1,79,4,33,judgment,dirt,934636.053387364,1,934641.320252951,934641.592221317,934642.216177065,934644.128115246,dirty
4,1,80,4,10,clue,blood,934644.236251924,1,934647.015965167,934647.263984425,934647.767964925,934647.919949289,blood
4,1,81,5,94,soccer,smell,934880.106234417,1,934881.494372906,934882.83832624,934883.310273175,934883.494269975,smell
4,1,82,5,50,yard,ghost,934883.606032479,1,934884.486252226,934884.742233089,934885.57417942,934885.790143983,ghost
4,1,83,5,25,plenty,clothes,934885.905914154,1,934887.110166018,934887.302141024,934888.502112047,934888.774075583,clothes
4,1,84,5,72,armor,nephew,934888.889089016,1,934889.758018051,934890.006026442,934891.5659706,934891.757954964,nephew
4,1,85,5,47,sailor,forever,934891.872250898,1,934898.973672915,934899.285629811,934899.997613873,934900.73359866,forever
4,1,86,5,14,month,book,934900.85506686,1,934905.629371548,934906.429344985,934906.893300734,934907.205319207,book
4,1,87,5,6,boom,bear,934907.321369797,1,934908.333267832,934908.557265236,934909.021244529,934909.317230825,bear
4,1,88,5,81,barrel,puzzle,934909.437876785,1,934910.39720396,934910.597146005,934913.373045368,934914.333009448,puzzle
4,1,89,5,9,style,bird,934914.45430348,1,934916.18895922,934916.436945878,934916.820916418,934917.140917625,bird
4,1,90,5,52,scar,headache,934917.254167648,1,934918.580833711,934918.828850252,934919.796803707,934920.004769839,headache
4,1,91,5,97,appeal,soup,934920.12064928,1,934921.004752332,934921.164753237,934922.172705485,934922.476693531,soup
4,1,92,5,24,comedy,church,934922.587169549,1,934923.532643605,934923.900609436,934924.604597784,934924.828586435,church
4,1,93,5,51,brand,groom,934924.937028887,0,934932.86026593,,,0,""
4,1,94,5,43,pump,fall,934932.9699185,1,934933.860254762,934934.292208337,934934.716182499,934934.86015817,fall
4,1,95,5,92,alarm,sick,934934.969787196,1,934935.996147484,934936.164106976,934936.468110417,934936.684076791,sick
4,1,96,5,56,curtain,husband,934936.803036313,1,934938.700026563,934939.027989979,934939.779953817,934940.243962389,husband
4,1,97,5,87,state,scare,934940.352832865,1,934944.627803133,934944.875774095,934945.579737994,934945.667735821,scare
4,1,98,5,90,union,shirt,934945.78585801,1,934947.011688853,934947.251652932,934947.675599626,934948.027584895,shirt
4,1,99,5,2,kindness,angel,934948.135715234,1,934949.763527121,934949.931512874,934952.515401914,934952.875412478,angel
4,1,100,5,53,claim,high,934952.98545353,1,934954.635366597,934954.963338163,934955.283342389,934955.587329228,high
4,1,101,6,63,memory,lose,935206.471094509,1,935209.336877962,935209.544891485,935209.936856229,935210.072867276,lose
4,1,102,6,91,front,short,935210.187569199,1,935211.192846751,935211.384830209,935211.832795436,935211.936747864,short
4,1,103,6,84,click,rain,935212.054113315,1,935213.112777325,935213.456761146,935213.864698904,935214.088691177,rain
4,1,104,6,114,denial,thin,935214.203989858,1,935216.008634731,935216.184611971,935216.512614326,935216.688568928,thin
4,1,105,6,103,powder,star,935216.803831085,1,935218.248558363,935218.448547194,935219.128499804,935219.296492801,star
4,1,106,6,20,wealth,candle,935219.40368348,1,935222.360382142,935222.840365239,935223.384319177,935223.728309638,candle
4,1,107,6,49,furniture,frog,935223.836767485,1,935225.008276434,935225.248262851,935225.544231942,935225.680226991,frog
4,1,108,6,77,soda,pool,935225.786649159,1,935227.65617133,935227.968120378,935228.44010444,935228.560102931,pool
4,1,109,6,12,junk,boat,935228.669822814,0,935234.255890308,,,0,""
4,1,110,6,61,policeman,lawn,935234.369505267,0,935243.415510882,,,0,""
4,1,111,6,41,liver,eggs,935243.53565909,1,935244.38347792,935244.895438739,935245.215404932,935245.455368408,eggs
4,1,112,6,119,gang,west,935245.568884059,1,935246.399356757,935246.743351444,935247.287312325,935247.423330919,west
4,1,113,6,60,pity,laugh,935247.53543391,1,935248.655276042,935248.847280932,935249.351257509,935249.615222011,laugh
4,1,114,6,79,concert,pudding,935249.735302907,1,935251.615183978,935251.815160735,935252.487091974,935252.655105799,pudding
4,1,115,6,18,trousers,butter,935252.768473241,1,935253.751047421,935254.167079296,935254.847029793,935254.983001298,butter
4,1,116,6,28,coast,corn,935255.101673156,1,935257.078941411,935257.254918349,935257.566919617,935257.726910864,corn
4,1,117,6,115,picture,thread,935257.834838359,1,935259.918844517,935260.166862568,935260.870757343,935261.054777084,thread
4,1,118,6,89,class,sheriff,935261.167999336,1,935264.598637146,935264.886617767,935265.542563615,935265.702560898,sheriff
4,1,119,6,107,weed,student,935265.817734311,1,935266.718553835,935266.878529385,935267.622486643,935267.830473905,student
4,1,120,6,42,employment,elephant,935267.950948414,1,935269.134455009,935269.318454526,935270.238378762,935270.518371216,elephant
6,1,1,1,97,judgment,soup,937186.732929332,0,937189.054202093,,,0,""
6,1,2,1,50,pirate,ghost,937189.166202264,1,937194.78197576,937195.078002065,937195.381984937,937195.605976526,cop
6,1,3,1,15,gang,bottom,937195.715913526,0,937197.37395502,,,0,""
6,1,4,1,79,employment,pudding,937197.482466364,0,937199.781882186,,,0,""
6,1,5,1,59,instant,land,937199.899080583,0,937200.981825075,,,0,""
6,1,6,1,11,ashes,board,937201.099026793,1,937202.39781174,937205.78172824,937206.341686536,937206.501654612,ghost
6,1,7,1,114,front,thin,937206.615451418,0,937208.837627356,,,0,""
6,1,8,1,85,turtle,rock,937208.948666425,0,937209.749591969,,,0,""
6,1,9,1,93,tree,small,937209.865322149,1,937210.725560777,937211.109520744,937213.813393318,937214.013393559,small
6,1,10,1,118,brand,uncle,937214.131842839,0,937215.517458475,,,0,""
6,1,11,1,65,month,math,937215.631725267,1,937216.949365216,937217.397347187,937217.765372891,937218.037316386,math
6,1,12,1,2,comedy,angel,937218.148268219,1,937220.565275452,937224.085154795,937224.941112531,937225.365107682,angel
6,1,13,1,91,hook,short,937225.481269211,0,937228.285051803,,,0,""
6,1,14,1,86,theft,rules,937228.397874828,1,937229.773020359,937230.117022718,937230.804961029,937230.988979918,rules
6,1,15,1,72,dressing,nephew,937231.09775146,0,937232.748907062,,,0,""
6,1,16,1,38,picture,drug,937232.864343841,0,937235.068833555,,,0,""
6,1,17,1,12,trousers,boat,937235.180899229,1,937238.548736877,937239.844712772,937240.316685487,937240.532692135,boat
6,1,18,1,60,document,laugh,937240.647328397,0,937242.140636145,,,0,""
6,1,19,1,76,wall,plane,937242.247261808,0,937243.556604699,,,0,""
6,1,20,1,120,curtain,window,937243.663876631,1,937245.588547784,937245.884533338,937246.620475474,937246.756495368,window
6,1,21,2,35,illness,disappear,937252.913502559,0,937255.116261745,,,0,""
6,1,22,2,1,trailer,airplane,937255.230070927,0,937257.132217138,,,0,""
6,1,23,2,25,sofa,clothes,937257.246651157,0,937260.420095199,,,0,""
6,1,24,2,64,goose,loud,937260.529831768,1,937262.932037897,937264.81198698,937265.347877861,937265.539952929,loud
6,1,25,2,26,kindness,cold,937265.646292736,0,937266.667938377,,,0,""
6,1,26,2,103,permission,star,937266.779615867,0,937267.619879916,,,0,""
6,1,27,2,100,link,spider,937267.729531363,0,937268.547842786,,,0,""
6,1,28,2,8,hair,belt,937268.662843989,0,937269.507824204,,,0,""
6,1,29,2,24,chef,church,937269.629460155,0,937270.67579503,,,0,""
6,1,30,2,46,scar,flowers,937270.796080186,1,937272.523727678,937273.019723737,937274.49166023,937274.699657486,flower
6,1,31,2,51,action,groom,937274.812577709,0,937276.531630213,,,0,""
6,1,32,2,14,print,book,937276.645833013,0,937277.403592846,,,0,""
6,1,33,2,80,alarm,push,937277.512460378,0,937280.875491305,,,0,""
6,1,34,2,37,pump,draw,937280.995646663,0,937281.891470846,,,0,""
6,1,35,2,95,appeal,snake,937282.012274587,0,937282.755434351,,,0,""
6,1,36,2,16,memory,breathe,937282.862235089,0,937283.723398597,,,0,""
6,1,37,2,78,strawberry,poor,937283.828855482,0,937284.64337562,,,0,""
6,1,38,2,99,burst,spaghetti,937284.762177767,0,937285.539329299,,,0,""
6,1,39,2,112,detail,television,937285.645449356,0,937286.53134315,,,0,""
6,1,40,2,102,powder,stamp,937286.645405889,0,937287.427315242,,,0,""
6,1,41,3,44,salesman,finish,937293.578464656,0,937295.027090783,,,0,""
6,1,42,3,61,port,lawn,937295.145049551,0,937299.89092751,,,0,""
6,1,43,3,48,class,forward,937300.0114952,0,937301.146911386,,,0,""
6,1,44,3,83,type,rabbit,937301.261445319,0,937302.106846922,,,0,""
6,1,45,3,32,warehouse,defense,937302.228035526,0,937302.938857079,,,0,""
6,1,46,3,77,concert,pool,937303.044713014,0,937304.202799635,,,0,""
6,1,47,3,81,plenty,puzzle,937304.311268719,0,937305.250759389,,,0,""
6,1,48,3,30,revolution,cute,937305.361225237,0,937306.690740119,,,0,""
6,1,49,3,116,danger,tired,937306.811217857,0,937307.474734678,,,0,""
6,1,50,3,58,armor,jelly,937307.594501852,0,937308.330701167,,,0,""
6,1,51,3,115,barrel,thread,937308.444484692,0,937309.15467054,,,0,""
6,1,52,3,7,circus,beer,937309.261125052,0,937309.922629111,,,0,""
6,1,53,3,54,retreat,horse,937310.027415276,0,937310.562617629,,,0,""
6,1,54,3,5,audience,bank,937310.67777006,0,937311.514580298,,,0,""
6,1,55,3,3,junk,animal,937311.627628204,0,937312.178589745,,,0,""
6,1,56,3,111,union,teeth,937312.294313586,0,937313.018568542,,,0,""
6,1,57,3,108,neighbor,sweat,937313.127618998,0,937313.698543042,,,0,""
6,1,58,3,28,soccer,corn,937313.810907853,0,937314.330526394,,,0,""
6,1,59,3,29,garbage,cracker,937314.444249849,0,937314.930509007,,,0,""
6,1,60,3,89,state,sheriff,937315.044211333,0,937315.674468684,,,0,""
6,1,61,4,20,branch,candle,937321.827249317,0,937322.490294944,,,0,""
6,1,62,4,63,medal,lose,937322.610511277,0,937323.130256295,,,0,""
6,1,63,4,40,debate,duck,937323.24381856,0,937323.81822781,,,0,""
6,1,64,4,4,sweetheart,answer,937323.927159033,0,937324.586228942,,,0,""
6,1,65,4,117,vampire,train,937324.693782806,0,937325.314207267,,,0,""
6,1,66,4,92,shoe,sick,937325.427096398,0,937325.890189175,,,0,""
6,1,67,4,84,massage,rain,937326.010394339,0,937326.538141806,,,0,""
6,1,68,4,6,writer,bear,937326.643712489,0,937327.154154068,,,0,""
6,1,69,4,66,liver,minus,937327.260348985,0,937327.802101869,,,0,""
6,1,70,4,47,policeman,forever,937327.91031317,0,937330.178044596,,,0,""
6,1,71,4,49,chase,frog,937330.293557744,0,937330.754042201,,,0,""
6,1,72,4,71,impulse,nail,937330.860172522,0,937331.434033302,,,0,""
6,1,73,4,68,shower,mistake,937331.54349126,0,937332.114005085,,,0,""
6,1,74,4,119,cape,west,937332.226824488,0,937333.177965511,,,0,""
6,1,75,4,41,squad,eggs,937333.293393233,0,937333.881953393,,,0,""
6,1,76,4,74,buzz,pepper,937333.993407813,0,937334.705928803,,,0,""
6,1,77,4,96,yard,soap,937334.826696321,0,937335.569876309,,,0,""
6,1,78,4,56,soda,husband,937335.676651088,0,937336.561869937,,,0,""
6,1,79,4,55,campus,hungry,937336.676631769,0,937337.569835257,,,0,""
6,1,80,4,57,denial,jeans,937337.676575926,0,937338.593802758,,,0,""
6,1,81,5,104,customer,steak,937344.742963257,0,937346.69758375,,,0,""
6,1,82,5,33,navy,dirt,937346.809500308,0,937347.521576969,,,0,""
6,1,83,5,10,gold,blood,937347.642821416,0,937348.321530846,,,0,""
6,1,84,5,62,boom,lightning,937348.442787971,0,937349.057498639,,,0,""
6,1,85,5,27,leather,copy,937349.176078622,0,,,,0,""
6,1,86,5,21,style,card,937359.192292704,0,937364.865058329,,,0,""
6,1,87,5,53,furniture,high,937364.975421546,0,937371.616857755,,,0,""
6,1,88,5,106,novel,street,937371.725133352,0,937372.120831209,,,0,""
6,1,89,5,109,fountain,tail,937372.241786782,0,937372.672823882,,,0,""
6,1,90,5,23,clue,cheap,937372.791758543,0,937373.160792137,,,0,""
6,1,91,5,70,territory,movie,937373.275069796,0,937373.744777399,,,0,""
6,1,92,5,110,post,tear,937373.85837468,0,937374.34476454,,,0,""
6,1,93,5,67,trash,mirror,937374.458366047,0,937374.944749267,,,0,""
6,1,94,5,88,contact,scratch,937375.058338397,0,937375.544733087,,,0,""
6,1,95,5,94,fraud,smell,937375.658311955,0,937376.160697959,,,0,""
6,1,96,5,22,click,chair,937376.274943621,0,937376.728671079,,,0,""
6,1,97,5,73,thief,orange,937376.841571077,1,937380.840574657,937381.408543552,937382.080507754,937382.440499315,rules
6,1,98,5,69,enemy,monkey,937382.557999566,1,937383.960516001,937385.992385736,937386.208389365,937386.400381423,no
6,1,99,5,113,pity,test,937386.507833561,0,937387.13639872,,,0,""
6,1,100,5,75,driver,pizza,937387.257816733,0,937387.9843528,,,0,""
6,1,101,6,82,mate,queen,937394.124155526,0,937399.992027133,,,0,""
6,1,102,6,87,wealth,scare,937400.107252312,0,937400.567976441,,,0,""
6,1,103,6,19,victor,cake,937400.673905425,0,937401.167962375,,,0,""
6,1,104,6,9,bluff,bird,937401.273882303,0,937401.807958136,,,0,""
6,1,105,6,90,cell,shirt,937401.923856147,0,937402.479917207,,,0,""
6,1,106,6,18,plate,butter,937402.590486893,0,937403.28789104,,,0,""
6,1,107,6,39,interest,drunk,937403.407111859,0,937404.735852183,,,0,""
6,1,108,6,101,substance,square,937404.857048636,0,937405.43187384,,,0,""
6,1,109,6,13,lieutenant,bone,937405.540400276,1,937409.455754709,937410.335714961,937410.719668589,937411.13568876,cop
6,1,110,6,34,coast,dirty,937411.256783789,0,937412.383654793,,,0,""
6,1,111,6,105,dream,steal,937412.490061913,0,937413.423614815,,,0,""
6,1,112,6,42,weed,elephant,937413.540022355,0,937414.167572983,,,0,""
6,1,113,6,45,moonlight,flag,937414.273327495,0,937416.167524988,,,0,""
6,1,114,6,98,department,south,937416.289894143,0,937416.87951864,,,0,""
6,1,115,6,43,center,fall,937416.989882159,0,937417.399469522,,,0,""
6,1,116,6,52,wreck,headache,937417.50652593,0,937417.951448008,,,0,""
6,1,117,6,31,unit,deer,937418.073171196,0,937418.559463255,,,0,""
6,1,118,6,107,tragedy,student,937418.673143848,0,937419.279447583,,,0,""
6,1,119,6,17,sailor,brush,937419.389767938,0,937419.767404367,,,0,""
6,1,120,6,36,claim,downstairs,937419.873093378,0,937420.303392747,,,0,""
7,1,1,1,116,buzz,tired,939792.084314347,1,939794.420517673,939794.900493827,939795.612445893,939796.076444203,tired
7,1,2,1,25,gang,clothes,939796.184061396,1,939797.580348939,939797.844356304,939799.644289293,939800.316267017,clothes
7,1,3,1,70,department,movie,939800.433830783,1,939802.220237858,939802.492200187,939803.228155694,939803.500115911,movie
7,1,4,1,58,kindness,jelly,939803.616991458,0,939809.787890972,,,0,""
7,1,5,1,20,mate,candle,939809.899966193,1,939811.403819614,939811.739791421,939812.627731293,939813.027718615,candle
7,1,6,1,84,action,rain,939813.149775423,1,939814.427682091,939814.771635727,939815.195658788,939815.571636934,rain
7,1,7,1,44,enemy,finish,939815.68296417,1,939819.627487398,939820.243485466,939820.835401008,939821.411359232,finish
7,1,8,1,103,picture,star,939821.532633644,1,939822.691310031,939823.011297956,939823.267294515,939823.819260165,star
7,1,9,1,13,tree,bone,939823.932502641,1,939825.139240243,939828.45109632,939828.971088171,939829.42705062,bone
7,1,10,1,39,medal,drunk,939829.548834254,1,939830.723061366,939831.010993088,939831.602978961,939832.0269658,drunk
7,1,11,1,74,port,pepper,939832.148699025,0,939836.074816022,,,0,""
7,1,12,1,4,plenty,answer,939836.181794802,1,939838.186693833,939838.778675782,939839.594651816,939840.130588004,answers
7,1,13,1,22,turtle,chair,939840.24822029,1,939842.29054484,939842.458526367,939843.62646654,939843.906481331,chair
7,1,14,1,82,center,queen,939844.014669323,1,939845.490433457,939845.930397537,939846.490344109,939847.35433608,queen
7,1,15,1,59,trash,land,939847.464488213,1,939850.298238703,939851.098216366,939851.458133961,939851.850140662,land
7,1,16,1,17,concert,brush,939851.964231338,0,939854.202051677,,,0,""
7,1,17,1,33,state,dirt,939854.314112107,1,939855.338001147,939855.841980742,939856.24196746,939856.585939509,dirt
7,1,18,1,14,warehouse,book,939856.697301156,1,939858.113893266,939858.449886202,939860.345817562,939860.785789791,books
7,1,19,1,27,thief,copy,939860.897061789,1,939862.497722237,939862.753673217,939863.201660781,939863.385677805,copy
7,1,20,1,54,plate,horse,939863.496871321,1,939864.529618159,939869.025463491,939869.897393522,939870.817371487,horse
7,1,21,2,99,sailor,spaghetti,940125.748666425,1,940127.734821757,940128.006809442,940129.710705726,940130.254688038,spaghetti
7,1,22,2,26,clue,cold,940130.36511425,1,940132.622636965,940132.814613782,940133.342554559,940133.534547677,cold
7,1,23,2,3,ashes,animal,940133.648242929,0,940135.574500287,,,0,""
7,1,24,2,73,soccer,orange,940135.681462163,1,940137.014451085,940137.366433638,940138.110362824,940138.526345498,orange
7,1,25,2,86,pity,rules,940138.647959492,1,940139.926320142,940140.238319297,940140.854277823,940141.158223611,rules
7,1,26,2,118,liver,uncle,940141.2644535,1,940142.214220773,940142.494127803,940143.54213861,940143.694129011,uncle
7,1,27,2,9,navy,bird,940143.814336986,1,940145.150111986,940145.454071961,940145.926042742,940146.08601799,bird
7,1,28,2,6,branch,bear,940146.197513659,0,940149.453921036,,,0,""
7,1,29,2,110,moonlight,tear,940149.563998913,1,940150.821866039,940151.189855414,940152.021796915,940152.16578466,tears
7,1,30,2,92,wealth,sick,940152.280524314,0,940156.597599988,,,0,""
7,1,31,2,2,squad,angel,940156.713602886,1,940157.557583386,940158.029550545,940158.957480455,940159.293493918,angel
7,1,32,2,80,chef,push,940159.413455281,1,940161.229432521,940161.605423647,940162.037414954,940162.349391168,push
7,1,33,2,100,sofa,spider,940162.463298017,1,940163.581348064,940163.797328926,940164.453313109,940164.781292825,spider
7,1,34,2,101,front,square,940164.896474388,1,940165.821211627,940166.029248695,940170.733020013,940170.900997012,picture
7,1,35,2,12,coast,boat,940171.01276827,1,940172.572971717,940172.852949682,940173.332911648,940173.972888104,boat
7,1,36,2,77,impulse,pool,940174.079283709,1,940174.908875306,940175.380818618,940175.884786441,940176.140803224,pool
7,1,37,2,114,brand,thin,940176.262480606,1,940177.236799481,940177.516777446,940177.8447309,940178.348760603,thin
7,1,38,2,83,link,rabbit,940178.46236711,0,940181.772611307,,,0,""
7,1,39,2,112,shower,television,940181.878831839,1,940183.412519243,940183.772519243,940186.308371216,940186.700373691,tevelision
7,1,40,2,53,barrel,high,940186.811884452,1,940189.260306378,940189.66827734,940190.444219566,940191.052189924,high
7,1,41,3,23,dream,cheap,940434.297865918,1,940439.625994144,940440.441980138,940441.753886323,940442.593873344,cheap
7,1,42,3,51,detail,groom,940442.714033928,1,940444.00984666,940444.281813517,940444.86578798,940445.161773069,groom
7,1,43,3,48,class,forward,940445.280559027,1,940446.60970962,940446.977716804,940448.081624257,940448.569611217,forward
7,1,44,3,117,trousers,train,940448.680365239,1,940449.601586827,940449.929566845,940450.545509976,940451.073505992,train
7,1,45,3,38,circus,drug,940451.180210692,1,940452.273499049,940454.297397748,940454.905363881,940455.201366778,drugs
7,1,46,3,8,alarm,belt,940455.313333937,1,940456.321319388,940456.593277189,940456.961262036,940457.169251713,belt
7,1,47,3,18,illness,butter,940457.279873525,1,940459.633185729,940459.897158683,940460.641107791,940460.833112983,butter
7,1,48,3,52,chase,headache,940460.946347007,1,940462.55305865,940462.801033536,940463.921005463,940464.168972803,headache
7,1,49,3,29,gold,cracker,940464.279475686,1,940465.232911648,940465.424907181,940466.440869631,940466.744842585,cracker
7,1,50,3,66,contact,minus,940466.862660811,1,940468.80080594,940471.704678982,940472.296628935,940472.760643243,minus
7,1,51,3,45,novel,flag,940472.879000574,0,940475.200547255,,,0,""
7,1,52,3,21,curtain,card,940475.312208035,1,940478.016424281,940478.328412569,940478.664367775,940478.91235896,card
7,1,53,3,5,claim,bank,940479.028660086,1,940479.936363307,940480.224346947,940480.600300945,940480.920284343,bank
7,1,54,3,34,armor,dirty,940481.028523046,1,940481.848228139,940482.048212744,940482.664176099,940483.136212684,dirty
7,1,55,3,88,junk,scratch,940483.245091913,0,940491.591864831,,,0,""
7,1,56,3,76,sweetheart,plane,940491.711284977,1,940492.671814724,940493.327785022,940493.855771378,940494.599740107,plane
7,1,57,3,31,tragedy,deer,940494.711097528,1,940495.607744272,940497.103611639,940497.591617314,940499.135576081,deer
7,1,58,3,40,permission,duck,940499.244163422,0,940503.351384889,,,0,""
7,1,59,3,19,leather,cake,940503.460595551,1,940504.463327598,940504.703312506,940505.21528872,940505.399251109,cake
7,1,60,3,65,appeal,math,940505.510473603,1,940506.455293549,940507.1592496,940507.743179691,940508.047184944,math
7,1,61,4,78,weed,poor,940746.230194995,1,940748.853263908,940749.565258535,940750.405215974,940750.6852202,poor
7,1,62,4,95,print,snake,940750.796576715,1,940753.061163029,940753.237136648,940753.901035347,940754.101034139,snake
7,1,63,4,115,theft,thread,940754.213028464,1,940755.141026291,940755.413024842,940756.181007576,940756.668970992,thread
7,1,64,4,68,type,mistake,940756.779566543,1,940757.860938151,940758.292921609,940759.45283196,940759.788847837,mistakes
7,1,65,4,24,policeman,church,940759.896043346,1,940761.076799481,940761.436791029,940762.116747261,940763.076716774,church
7,1,66,4,107,month,student,940763.195871593,0,940765.924592049,,,0,""
7,1,67,4,63,cell,lose,940766.04571282,1,940766.980534275,940767.236526306,940767.66049594,940767.788496483,lose
7,1,68,4,105,furniture,steal,940767.895597513,0,940770.988436717,,,0,""
7,1,69,4,67,burst,mirror,940771.112090917,1,940771.964351776,940772.644325515,940773.564225905,940773.932248785,mirror
7,1,70,4,108,driver,sweat,940774.045247366,1,940774.908232968,940776.132182076,940777.06013372,940777.444092185,sweat
7,1,71,4,97,bluff,soup,940777.561727489,1,940778.484073168,940778.764055359,940779.348000241,940779.812009116,soup
7,1,72,4,120,union,window,940779.928255305,0,940781.235930152,,,0,""
7,1,73,4,36,style,downstairs,940781.344835341,0,940784.099852093,,,0,""
7,1,74,4,41,territory,eggs,940784.211353497,1,940785.107825168,940785.331759788,940785.763755622,940786.107708654,eggs
7,1,75,4,11,cape,board,940786.227898518,1,940787.94768511,940788.419641402,940789.051587431,940789.403602584,board
7,1,76,4,7,audience,beer,940789.511032932,0,940790.683568475,,,0,""
7,1,77,4,75,scar,pizza,940790.794302575,1,940791.69154819,940792.035503939,940793.387445139,940793.675435721,pizza
7,1,78,4,106,retreat,street,940793.794137161,1,940794.611383682,940794.859388753,940795.491370401,940796.611313049,street
7,1,79,4,57,hair,jeans,940796.727324399,1,940798.531243623,940798.883242175,940799.419211869,940799.611205288,jeans
7,1,80,4,79,comedy,pudding,940799.727124876,0,940807.146903317,,,0,""
7,1,81,5,32,debate,defense,941050.962912252,1,941055.216708624,941055.368719249,941056.91263787,941057.160596758,defense
7,1,82,5,42,pump,elephant,941057.279197984,0,941058.616568565,,,0,""
7,1,83,5,109,substance,tail,941058.72911739,0,941060.000520994,,,0,""
7,1,84,5,113,danger,test,941060.112362884,1,941061.488428567,941061.824436294,941062.096413414,941062.51236862,test
7,1,85,5,69,wall,monkey,941062.628898548,0,941063.752366507,,,0,""
7,1,86,5,89,employment,sheriff,941063.862154608,1,941064.976319237,941065.520304567,941066.360214616,941066.544198436,sheriff
7,1,87,5,62,strawberry,lightning,941066.661997646,0,941068.040178394,,,0,""
7,1,88,5,15,fountain,bottom,941068.161908298,1,941069.208100456,941070.48005705,941071.399988228,941072.327968245,bottom
7,1,89,5,98,denial,south,941072.44498204,1,941073.583950014,941073.943922243,941074.431917957,941074.807878294,south
7,1,90,5,47,pirate,forever,941074.928196444,0,941076.311808989,,,0,""
7,1,91,5,50,document,ghost,941076.428106493,0,941077.895776812,,,0,""
7,1,92,5,30,powder,cute,941078.011362251,1,941079.047739443,941079.343701591,941079.775694709,941080.095657279,cute
7,1,93,5,49,yard,frog,941080.211224003,1,941081.583620091,941081.855567328,941082.359556884,941083.135525974,frog
7,1,94,5,10,salesman,blood,941083.244372906,0,941084.74346826,,,0,""
7,1,95,5,1,campus,airplane,941084.861006369,1,941085.90342902,941086.175441758,941087.81534426,941088.055359655,airplane
7,1,96,5,81,lieutenant,puzzle,941088.177434272,1,941089.655289324,941089.943293489,941090.743207764,941090.975208428,puzzle
7,1,97,5,72,shoe,nephew,941091.093945486,1,941092.135180356,941093.455146246,941097.622962661,941098.286944973,niece
7,1,98,5,35,garbage,disappear,941098.393560929,1,941102.75871774,941103.102741103,941103.654726976,941104.726655498,dump
7,1,99,5,28,victor,corn,941104.843167919,1,941109.454457424,941109.790434664,941110.174419693,941110.58237526,corn
7,1,100,5,93,revolution,small,941110.692837091,1,941111.654386187,941111.846385644,941112.414299556,941112.822334209,small
7,1,101,6,43,wreck,fall,941358.145476773,0,941361.516163784,,,0,""
7,1,102,6,90,memory,shirt,941361.62860515,0,941363.084085544,,,0,""
7,1,103,6,56,goose,husband,941363.195176432,1,941364.604004045,941364.891997947,941365.667951342,941365.859913973,husband
7,1,104,6,119,judgment,west,941365.978354312,1,941367.331905279,941367.587880407,941368.059835492,941368.723820218,west
7,1,105,6,111,customer,teeth,941368.844868846,0,941370.491774276,,,0,""
7,1,106,6,87,click,scare,941370.611445863,1,941372.115708895,941372.579655891,941373.115612907,941373.379605482,fright
7,1,107,6,37,dressing,draw,941373.494602614,0,941376.251557246,,,0,""
7,1,108,6,96,interest,soap,941376.361101754,1,941377.371435902,941377.571444958,941377.947413143,941378.227446044,soap
7,1,109,6,64,unit,loud,941378.344330043,1,941379.475377766,941379.723376498,941380.203355972,941380.443343596,loud
7,1,110,6,61,soda,lawn,941380.560886233,1,941382.019271031,941382.267283347,941382.635230463,941382.971238492,lawn
7,1,111,6,91,vampire,short,941383.077385976,1,941384.003218932,941384.155184883,941384.66713544,941385.027118839,short
7,1,112,6,104,hook,steak,941385.143925262,1,941386.059094751,941386.219098675,941386.771037158,941387.027034924,steak
7,1,113,6,85,neighbor,rock,941387.143803616,1,941388.035030336,941388.322989526,941388.634997736,941388.874993208,rock
7,1,114,6,55,massage,hungry,941388.993726041,1,941389.858943222,941390.106946784,941390.794904464,941391.138900057,hungry
7,1,115,6,16,boom,breathe,941391.260264421,0,941392.45081409,,,0,""
7,1,116,6,60,fraud,laugh,941392.560192279,1,941393.482786381,941393.730786924,941394.210745872,941394.49873736,laugh
7,1,117,6,71,instant,nail,941394.610061276,0,941395.794725467,,,0,""
7,1,118,6,94,trailer,smell,941395.909994567,0,941396.8906852,,,0,""
7,1,119,6,102,writer,stamp,941397.009939932,1,941397.994609557,941398.242628211,941398.954572429,941399.530536086,stamp
7,1,120,6,46,post,flowers,941399.643120227,0,941401.426493405,,,0,""
9,1,1,1,29,picture,cracker,942676.16643922,0,942680.853212978,,,0,""
9,1,2,1,40,policeman,duck,942680.966249414,0,942682.469159135,,,0,""
9,1,3,1,84,claim,rain,942682.582865082,0,942687.61301425,,,0,""
9,1,4,1,15,armor,bottom,942687.732649514,1,942690.492901151,942690.924909316,942691.796850819,942692.116839493,bottom
9,1,5,1,37,union,draw,942692.232428406,0,942700.628626737,,,0,""
9,1,6,1,43,appeal,fall,942700.748762776,1,942702.532544831,942702.87656017,942703.340514739,942703.692505058,fall
9,1,7,1,50,furniture,ghost,942703.798589799,1,942707.404398192,942707.7484084,942708.668387234,942708.828380364,ghost
9,1,8,1,98,sofa,south,942708.948386908,1,942710.292346102,942710.532324477,942711.068287199,942711.308303306,south
9,1,9,1,12,kindness,boat,942711.414957947,0,942712.988230113,,,0,""
9,1,10,1,108,chase,sweat,942713.098225069,1,942714.820198614,942715.036210997,942715.844200224,942716.028161459,sweat
9,1,11,1,105,click,steal,942716.148119405,0,942719.596070587,,,0,""
9,1,12,1,49,bluff,frog,942719.714626119,0,942721.116028412,,,0,""
9,1,13,1,103,department,star,942721.231216764,0,942724.027925108,,,0,""
9,1,14,1,26,chef,cold,942724.147772575,1,942725.659877671,942725.883853865,942726.595830311,942726.771850373,cold
9,1,15,1,11,theft,board,942726.880975386,0,942727.995819927,,,0,""
9,1,16,1,46,circus,flowers,942728.114268302,1,942729.043797491,942729.3478027,942730.29974756,942730.531699036,flowers
9,1,17,1,36,vampire,downstairs,942730.647472381,0,942732.059711832,,,0,""
9,1,18,1,113,memory,test,942732.180750415,1,942733.947627745,942734.18764023,942734.755618784,942734.955586123,test
9,1,19,1,3,hair,animal,942735.063949559,1,942740.739443339,942741.075436609,942742.09137691,942742.299370846,messy
9,1,20,1,56,branch,husband,942742.413637336,0,942743.899343196,,,0,""
9,1,21,2,72,writer,nephew,942750.04665967,0,942751.827124953,,,0,""
9,1,22,2,101,boom,square,942751.946600235,0,942753.163085019,,,0,""
9,1,23,2,68,pirate,mistake,942753.279864142,0,942754.883029804,,,0,""
9,1,24,2,86,dressing,rules,942754.996435407,0,942756.530973681,,,0,""
9,1,25,2,65,type,math,942756.646357333,1,942758.76290282,942758.986919463,942759.394865345,942760.098848397,math
9,1,26,2,110,debate,tear,942760.212913249,0,942761.258850281,,,0,""
9,1,27,2,63,wall,lose,942761.379526941,0,942762.378806113,,,0,""
9,1,28,2,38,neighbor,drug,942762.496154532,0,942767.074686804,,,0,""
9,1,29,2,104,soda,steak,942767.195951173,0,942768.306696236,,,0,""
9,1,30,2,76,scar,plane,942768.412496329,0,942769.250637138,,,0,""
9,1,31,2,13,trash,bone,942769.362519285,0,942770.474582242,,,0,""
9,1,32,2,116,strawberry,tired,942770.595808276,0,942771.722543747,,,0,""
9,1,33,2,48,massage,forward,942771.829074326,1,942773.802503335,942774.026474398,942775.250396561,942775.442396466,forward
9,1,34,2,39,gang,drunk,942775.562235482,1,942777.330377278,942777.794301964,942778.594371753,942779.074295903,drunk
9,1,35,2,120,victor,window,942779.195445266,0,942780.210268104,,,0,""
9,1,36,2,58,burst,jelly,942780.328756323,0,942781.426236718,,,0,""
9,1,37,2,55,buzz,hungry,942781.545320797,0,942782.818215132,,,0,""
9,1,38,2,75,substance,pizza,942782.928616685,0,942785.602151735,,,0,""
9,1,39,2,45,mate,flag,942785.7118551,0,942787.258084477,,,0,""
9,1,40,2,59,novel,land,942787.378433626,0,942790.242012569,,,0,""
9,1,41,3,47,cape,forever,942796.394716229,0,942797.561798397,,,0,""
9,1,42,3,6,style,bear,942797.67797351,0,942798.569739268,,,0,""
9,1,43,3,4,retreat,answer,942798.67794091,0,942799.30570857,,,0,""
9,1,44,3,99,illness,spaghetti,942799.411243031,0,942800.305704646,,,0,""
9,1,45,3,81,campus,puzzle,942800.410904955,1,942804.905568027,942805.513548561,942806.097496394,942806.353490835,bell
9,1,46,3,91,yard,short,942806.460935427,1,942808.193485631,942808.513464344,942809.10542851,942809.345431637,short
9,1,47,3,25,tree,clothes,942809.460799593,0,942810.881395567,,,0,""
9,1,48,3,117,salesman,train,942810.99409936,0,942811.705373392,,,0,""
9,1,49,3,35,liver,disappear,942811.82738334,0,942812.417329915,,,0,""
9,1,50,3,95,pity,snake,942812.527308571,0,942813.01729985,,,0,""
9,1,51,3,7,class,beer,942813.127339481,0,942815.073249074,,,0,""
9,1,52,3,93,moonlight,small,942815.193949882,0,942816.073239414,,,0,""
9,1,53,3,51,enemy,groom,942816.193877135,0,942818.089181828,,,0,""
9,1,54,3,24,month,church,942818.210451027,0,942818.929132553,,,0,""
9,1,55,3,8,soccer,belt,942819.043754024,0,942819.601136299,,,0,""
9,1,56,3,77,document,pool,942819.710380544,0,942820.385116369,,,0,""
9,1,57,3,100,gold,spider,942820.493696536,0,942821.105092547,,,0,""
9,1,58,3,92,garbage,sick,942821.226987187,0,942821.8490483,,,0,""
9,1,59,3,57,wreck,jeans,942821.960273311,0,942822.48105731,,,0,""
9,1,60,3,34,ashes,dirty,942822.593607157,1,942823.761006574,942824.256989653,942825.081010341,942825.200956515,dirty
9,1,61,4,30,cell,cute,942831.343233839,0,942832.960762012,,,0,""
9,1,62,4,20,goose,candle,942833.076440273,0,942833.864738364,,,0,""
9,1,63,4,17,junk,brush,942833.976455396,0,942834.488699647,,,0,""
9,1,64,4,61,fraud,lawn,942834.609760566,0,942835.160679847,,,0,""
9,1,65,4,71,dream,nail,942835.27639735,0,942835.912658877,,,0,""
9,1,66,4,32,print,defense,942836.026337658,0,942836.720634219,,,0,""
9,1,67,4,33,trailer,dirt,942836.826314777,0,942837.664614966,,,0,""
9,1,68,4,54,danger,horse,942837.776273137,0,942838.504567804,,,0,""
9,1,69,4,67,weed,mirror,942838.626239676,0,942839.256563738,,,0,""
9,1,70,4,85,employment,rock,942839.3762313,0,942840.400510012,,,0,""
9,1,71,4,44,thief,finish,942840.509515189,0,942841.192480457,,,0,""
9,1,72,4,118,detail,uncle,942841.309481744,0,942841.840444558,,,0,""
9,1,73,4,42,audience,elephant,942841.959448646,0,942842.536470139,,,0,""
9,1,74,4,88,denial,scratch,942842.642752594,0,942843.152440444,,,0,""
9,1,75,4,106,brand,street,942843.259396334,0,942843.704423759,,,0,""
9,1,76,4,112,revolution,television,942843.826038581,0,942844.536404033,,,0,""
9,1,77,4,2,post,angel,942844.642674413,0,942845.024367458,,,0,""
9,1,78,4,119,plenty,west,942845.142647397,0,942845.856366446,,,0,""
9,1,79,4,21,instant,card,942845.975954922,0,942846.488319009,,,0,""
9,1,80,4,14,interest,book,942846.609257678,0,942847.176329765,,,0,""
9,1,81,5,111,squad,teeth,942853.325638172,1,942855.88809129,942856.256045153,942857.000018111,942857.424007225,teeth
9,1,82,5,79,shower,pudding,942857.542089451,0,942858.512012729,,,0,""
9,1,83,5,74,plate,pepper,942858.625410785,0,942859.711969805,,,0,""
9,1,84,5,90,concert,shirt,942859.825364843,0,942861.127922361,,,0,""
9,1,85,5,9,contact,bird,942861.241970913,0,942862.055882212,,,0,""
9,1,86,5,60,medal,laugh,942862.175263918,0,942862.823870365,,,0,""
9,1,87,5,102,lieutenant,stamp,942862.941855695,0,942863.83981308,,,0,""
9,1,88,5,109,tragedy,tail,942863.958525577,0,942864.551820617,,,0,""
9,1,89,5,64,territory,loud,942864.658492161,0,942865.135801653,,,0,""
9,1,90,5,22,hook,chair,942865.241800063,0,942865.807750461,,,0,""
9,1,91,5,53,shoe,high,942865.925102502,0,942866.351782945,,,0,""
9,1,92,5,16,barrel,breathe,942866.458416456,0,942868.663723893,,,0,""
9,1,93,5,19,port,cake,942868.774978184,0,942869.607652721,,,0,""
9,1,94,5,87,driver,scare,942869.724946806,0,942870.287670989,,,0,""
9,1,95,5,114,fountain,thin,942870.408219965,0,942870.927596419,,,0,""
9,1,96,5,107,leather,student,942871.041516079,1,942872.775555026,942873.151557219,942874.183514793,942874.447497797,student
9,1,97,5,78,warehouse,poor,942874.558022507,0,942876.079469679,,,0,""
9,1,98,5,31,pump,deer,942876.191342468,0,942876.943476349,,,0,""
9,1,99,5,82,center,queen,942877.057955646,0,942878.887395517,,,0,""
9,1,100,5,97,sweetheart,soup,942879.007879594,0,942880.007348029,,,0,""
9,1,101,6,73,navy,orange,942886.157582826,1,942892.047016763,942892.319001009,942893.286942917,942893.574961038,orange
9,1,102,6,66,action,minus,942893.690528519,0,942894.750926163,,,0,""
9,1,103,6,1,clue,airplane,942894.857180546,0,942895.606908047,,,0,""
9,1,104,6,10,wealth,blood,942895.723843832,0,942896.438885302,,,0,""
9,1,105,6,115,front,thread,942896.557142603,0,942897.366852699,,,0,""
9,1,106,6,62,turtle,lightning,942897.473786857,0,942898.278816407,,,0,""
9,1,107,6,28,curtain,corn,942898.390391568,0,942899.25480725,,,0,""
9,1,108,6,23,judgment,cheap,942899.373680634,0,942900.750737806,,,0,""
9,1,109,6,80,impulse,push,942900.856950533,0,942901.486737294,,,0,""
9,1,110,6,89,customer,sheriff,942901.606963588,0,942902.366700867,,,0,""
9,1,111,6,83,state,rabbit,942902.473559561,0,942903.12670438,,,0,""
9,1,112,6,18,alarm,butter,942903.240179712,0,942904.414654282,,,0,""
9,1,113,6,69,unit,monkey,942904.523459632,0,942905.094612481,,,0,""
9,1,114,6,52,link,headache,942905.206772334,0,942905.742615824,,,0,""
9,1,115,6,5,coast,bank,942905.856748291,0,942906.278597563,,,0,""
9,1,116,6,96,permission,soap,942906.390084884,0,942906.942549959,,,0,""
9,1,117,6,94,powder,smell,942907.056700236,1,942908.294486548,942908.814535231,942910.494438493,942910.862455141,smell
9,1,118,6,41,trousers,eggs,942910.973173942,0,942912.166422014,,,0,""
9,1,119,6,70,sailor,movie,942912.273132196,0,942912.998370291,,,0,""
9,1,120,6,27,comedy,copy,942913.10644455,0,942915.230314221,,,0,""
10,1,1,1,98,vampire,south,69897.5256137347,0,69899.7325629552,,,0,""
10,1,2,1,107,print,student,69899.8421706866,1,69901.7805110552,69902.036485098,69902.4444529635,69902.9644714854,copy
10,1,3,1,55,novel,hungry,69903.0753608997,0,69905.9644234902,,,0,""
10,1,4,1,47,interest,forever,69906.0752742669,0,69910.2923341721,,,0,""
10,1,5,1,52,powder,headache,69910.4084194429,1,69913.1642878359,69913.4042339002,69914.6922062453,69914.8521778346,headeche
10,1,6,1,120,month,window,69914.9583142157,0,69921.1241228049,,,0,""
10,1,7,1,51,soda,groom,69921.2413892404,0,69926.5560103863,,,0,""
10,1,8,1,3,type,animal,69926.6745171503,1,69931.5158996894,69931.8598624983,69932.347871851,69932.5238831912,copy
10,1,9,1,117,curtain,train,69932.6409642868,0,69939.3717508162,,,0,""
10,1,10,1,104,document,steak,69939.4907397268,0,69945.8996037227,,,0,""
10,1,11,1,65,yard,math,69946.007141322,1,69951.2114495996,69951.4434628741,69953.4833939662,69953.9153766324,grass
10,1,12,1,70,territory,movie,69954.023483835,1,69958.8833339572,69959.1793115377,69965.9711727006,69966.7391150532,luitenant
10,1,13,1,2,fountain,angel,69966.8563802813,1,69968.5151396147,69968.7231326551,69969.1470883522,69969.2831003806,angel
10,1,14,1,8,sailor,belt,69969.3896367217,1,69971.1310884464,69971.4590425956,69971.8270600501,69972.0510536001,belt
10,1,15,1,73,gold,orange,69972.1561537078,0,69976.1949911737,,,0,""
10,1,16,1,7,burst,beer,69976.3060629093,0,69985.9707814945,,,0,""
10,1,17,1,89,illness,sheriff,69986.0890108523,0,69987.5627611059,,,0,""
10,1,18,1,43,trailer,fall,69987.6722529244,0,69990.0426903628,,,0,""
10,1,19,1,26,permission,cold,69990.1555499947,0,69993.1226313317,,,0,""
10,1,20,1,35,employment,disappear,69993.2387549384,0,69997.0745090605,,,0,""
10,1,21,2,103,circus,star,70003.2216795177,0,70007.9543272946,,,0,""
10,1,22,2,17,style,brush,70008.071503475,1,70011.6982316037,70020.6740818731,70021.1779993673,70021.5380239626,comb
10,1,23,2,40,contact,duck,70021.6543329091,0,70028.425918972,,,0,""
10,1,24,2,42,department,elephant,70028.5374434925,0,70031.0658403445,,,0,""
10,1,25,2,74,clue,pepper,70031.1873493736,1,70034.0817928588,70034.233750157,70038.2096444975,70038.937630402,detective
10,1,26,2,4,weed,answer,70039.0537537068,0,,,,0,""
10,1,27,2,49,pirate,frog,70049.1700303547,0,70049.4094680926,,,0,""
10,1,28,2,101,moonlight,square,70049.5200121829,1,70052.7374089601,70055.4253581226,70056.3373059666,70056.5932628036,square
10,1,29,2,39,retreat,drunk,70056.7030564786,0,70058.5853122042,,,0,""
10,1,30,2,22,action,chair,70058.7030160298,0,70061.8812454118,,,0,""
10,1,31,2,96,sofa,soap,70062.0028932949,0,70064.3211641882,,,0,""
10,1,32,2,99,trash,spaghetti,70064.4360836891,0,70069.0730725253,,,0,""
10,1,33,2,69,strawberry,monkey,70069.1859738133,0,70074.057001985,,,0,""
10,1,34,2,82,judgment,queen,70074.1691142201,0,70077.9128953717,,,0,""
10,1,35,2,31,customer,deer,70078.0189276124,0,70080.8488239065,,,0,""
10,1,36,2,78,revolution,poor,70080.9688671203,0,70083.2807606906,,,0,""
10,1,37,2,19,warehouse,cake,70083.4021036986,0,70084.4806986892,,,0,""
10,1,38,2,18,writer,butter,70084.6020655439,0,70089.3046158091,,,0,""
10,1,39,2,111,memory,teeth,70089.4185675579,0,70092.3366014335,,,0,""
10,1,40,2,87,liver,scare,70092.4517518546,1,70096.0325214197,70096.5524847019,70097.9284759988,70098.4884672691,concern
10,1,41,3,109,wealth,tail,70104.6346690686,0,70108.3362546003,,,0,""
10,1,42,3,33,theft,dirt,70108.4511662529,1,70111.9521820002,70112.44014698,70113.6161015711,70113.8640993567,enemy
10,1,43,3,93,neighbor,small,70113.9842938006,0,70116.9600761524,,,0,""
10,1,44,3,66,branch,minus,70117.0675358726,1,70119.4000287367,70119.7279970732,70120.0720208571,70120.1999742215,tree
10,1,45,3,67,garbage,mirror,70120.3174012446,0,70123.4799540091,,,0,""
10,1,46,3,16,plate,breathe,70123.6006413848,1,70125.343874063,70126.7038464371,70127.2078553938,70130.0638103592,neck
10,1,47,3,60,plenty,laugh,70130.1837177376,0,70131.4157482178,,,0,""
10,1,48,3,44,union,finish,70131.5337040937,1,70134.4796995441,70134.7596880856,70135.3036821668,70135.6556979044,finish
10,1,49,3,30,impulse,cute,70135.7668384633,0,70139.4876087891,,,0,""
10,1,50,3,32,lieutenant,defense,70139.6000503497,0,70146.4394865179,,,0,""
10,1,51,3,81,tragedy,puzzle,70146.5497477687,0,70149.7594218481,,,0,""
10,1,52,3,85,tree,rock,70149.8663367173,0,70154.3432788019,,,0,""
10,1,53,3,6,boom,bear,70154.449207204,0,70158.9032272086,,,0,""
10,1,54,3,100,campus,spider,70159.0160189228,1,70160.3271732463,70160.6151709474,70161.2311212884,70162.2871274487,spider
10,1,55,3,34,barrel,dirty,70162.3992279113,0,70163.4711231961,,,0,""
10,1,56,3,72,thief,nephew,70163.5822054967,0,70166.0950833003,,,0,""
10,1,57,3,118,class,uncle,70166.2157127195,0,70167.9750038638,,,0,""
10,1,58,3,21,junk,card,70168.0823724233,1,70169.9269730551,70170.2389653324,70170.6549465835,70171.8389115415,yard
10,1,59,3,12,goose,boat,70171.9488808971,1,70180.9667840084,70186.9506660766,70187.3026075575,70187.4785998807,boat
10,1,60,3,58,soccer,jelly,70187.5982793574,0,70190.9025601057,,,0,""
10,1,61,4,25,brand,clothes,70197.0479647021,1,70199.5583950529,70199.7343550775,70200.334351093,70200.4303487167,clothes
10,1,62,4,56,cell,husband,70200.5644747455,1,70202.6063141747,70202.8462810671,70203.3102771284,70204.790249249,father
10,1,63,4,29,chef,cracker,70204.897692669,0,70208.3101907975,,,0,""
10,1,64,4,88,front,scratch,70208.4308564394,0,70210.7421604838,,,0,""
10,1,65,4,9,squad,bird,70210.8474703818,0,70214.5900905932,,,0,""
10,1,66,4,63,kindness,lose,70214.6973438436,1,70216.9740385265,70217.1579917122,70218.0539456876,70218.485965784,compassion
10,1,67,4,20,unit,candle,70218.5971688272,1,70219.9259751174,70220.3979625287,70220.8619178395,70221.23788046,candle
10,1,68,4,71,port,nail,70221.3470517068,1,70223.5339027153,70223.7178691826,70224.0218221147,70224.2378179757,dock
10,1,69,4,38,gang,drug,70224.3469499812,0,70228.4937862832,,,0,""
10,1,70,4,91,substance,short,70228.6134962473,1,70235.3896512108,70235.7576411964,70236.2696282214,70237.7815920035,drug
10,1,71,4,114,dream,thin,70237.896426079,0,70242.7655084834,,,0,""
10,1,72,4,41,armor,eggs,70242.8796341016,1,70245.9334282572,70246.0694439078,70246.3413900856,70247.2294088562,egg
10,1,73,4,79,danger,pudding,70247.3461283277,0,70250.1253395886,,,0,""
10,1,74,4,110,bluff,tear,70250.2460354162,0,70253.6932766286,,,0,""
10,1,75,4,116,instant,tired,70253.8125386376,0,70255.8691916765,,,0,""
10,1,76,4,94,leather,smell,70255.9791519763,0,70258.0771913577,,,0,""
10,1,77,4,68,policeman,mistake,70258.1957461169,0,70262.5250900136,,,0,""
10,1,78,4,77,pity,pool,70262.6455796732,0,70266.8290055155,,,0,""
10,1,79,4,86,victor,rules,70266.9454207156,1,70272.9168937634,70274.1168504772,70275.1168272342,70275.3568104268,success
10,1,80,4,83,link,rabbit,70275.4784537821,0,70276.9167778505,,,0,""
10,1,81,5,46,chase,flowers,70283.0614308241,0,70285.6526068934,,,0,""
10,1,82,5,105,enemy,steal,70285.7613887453,0,70287.1006063694,,,0,""
10,1,83,5,76,comedy,plane,70287.2113490814,0,70289.0525483936,,,0,""
10,1,84,5,13,wall,bone,70289.1612864763,0,70291.556528674,,,0,""
10,1,85,5,10,concert,blood,70291.6778254979,0,70294.6764445043,,,0,""
10,1,86,5,15,salesman,bottom,70294.7944070209,0,70298.0363655628,,,0,""
10,1,87,5,59,buzz,land,70298.1442475803,0,70303.2922330501,,,0,""
10,1,88,5,37,navy,draw,70303.4106782354,0,70306.2362039488,,,0,""
10,1,89,5,48,debate,forward,70306.3439884667,0,70308.3001613121,,,0,""
10,1,90,5,62,dressing,lightning,70308.4105810376,1,70312.3480792265,70312.5080535325,70312.9240236148,70313.1320187682,room
10,1,91,5,112,pump,television,70313.2437280248,0,70315.7240128687,,,0,""
10,1,92,5,36,hair,downstairs,70315.8436401242,1,70317.9639574237,70318.8679247846,70319.2998890375,70319.8278807981,comb
10,1,93,5,61,alarm,lawn,70319.9434951727,0,70321.1238927902,,,0,""
10,1,94,5,92,claim,sick,70321.2434156033,0,70322.1478269951,,,0,""
10,1,95,5,5,medal,bank,70322.2600394466,0,70324.5318147736,,,0,""
10,1,96,5,97,post,soup,70324.6433151455,0,70325.9477625186,,,0,""
10,1,97,5,54,shower,horse,70326.0599375398,1,70327.9477039584,70328.0837141757,70328.7797081168,70329.3396969723,curtain
10,1,98,5,11,turtle,board,70329.4598120279,0,70330.1797136106,,,0,""
10,1,99,5,108,trousers,sweat,70330.2931189991,0,70333.0116558884,,,0,""
10,1,100,5,57,audience,jeans,70333.1263483932,0,70334.6436139834,,,0,""
10,1,101,6,115,shoe,thread,70340.7927371506,0,70342.2914539584,,,0,""
10,1,102,6,90,appeal,shirt,70342.4093419165,0,70344.2754286967,,,0,""
10,1,103,6,113,ashes,test,70344.3925973306,0,70345.9073813583,,,0,""
10,1,104,6,27,wreck,copy,70346.0258678979,0,70347.9313406173,,,0,""
10,1,105,6,53,state,high,70348.0424455571,0,70350.2592407342,,,0,""
10,1,106,6,119,hook,west,70350.3757226446,0,70352.011258947,,,0,""
10,1,107,6,14,picture,book,70352.1256589528,0,70353.7072441343,,,0,""
10,1,108,6,102,click,stamp,70353.825566464,0,70355.2911684021,,,0,""
10,1,109,6,24,mate,church,70355.4088692092,0,70356.7791617565,,,0,""
10,1,110,6,1,driver,airplane,70356.8918414818,0,70358.115081296,,,0,""
10,1,111,6,80,cape,push,70358.225401107,0,70359.5790827908,,,0,""
10,1,112,6,28,denial,corn,70359.6920498836,0,70362.3070412264,,,0,""
10,1,113,6,95,furniture,snake,70362.4252760176,0,70364.4590078821,,,0,""
10,1,114,6,50,massage,ghost,70364.5752069528,0,70365.9389673246,,,0,""
10,1,115,6,23,detail,cheap,70366.0584783653,0,70367.5549427197,,,0,""
10,1,116,6,84,center,rain,70367.6751118077,0,70369.3629200032,,,0,""
10,1,117,6,45,coast,flag,70369.4749951099,0,70372.7148297891,,,0,""
10,1,118,6,106,scar,street,70372.8249087186,0,70375.1867701109,,,0,""
