subject,session,trial,list,id,cue,target,onset,recalled,latency,fp,lp,advance,response
1,1,1,1,53,branch,high,925777.450481019,1,925780.89265834,925781.412618881,925781.74857774,925782.812553258,high
1,1,2,1,77,chlorine,pool,925782.933608745,0,925787.516442736,,,0,""
1,1,3,1,105,rob,steal,925787.633396632,1,925790.572335815,925790.796334649,925791.284305922,925791.740258948,steal
1,1,4,1,70,cinema,movie,925791.849888963,1,925796.316200408,925798.060133522,925799.244088116,925799.900051949,movie
1,1,5,1,34,trailer,dirty,925800.016208347,1,925802.075990511,925802.53200089,925803.059950297,925803.451945011,dirty
1,1,6,1,6,grizzly,bear,925803.566046085,1,925806.051919172,925806.315888895,925807.011811241,925807.25983191,bear
1,1,7,1,8,shower,belt,925807.382555743,1,925808.947820026,925809.315790189,925809.779758342,925809.93173544,belt
1,1,8,1,81,claim,puzzle,925810.049117364,1,925813.811684221,925814.147614403,925814.907606447,925815.243596396,puzzle
1,1,17,2,112,contact,television,926088.537385058,0,926091.875545035,,,0,""
1,1,18,2,41,impulse,eggs,926091.987287121,0,926094.051463071,,,0,""
1,1,19,2,93,state,small,926094.170495834,1,926096.187398445,926097.171375738,926097.643316155,926097.971323276,small
1,1,20,2,54,saddle,horse,926098.086992482,1,926101.403253562,926101.835201356,926102.611231802,926102.795193641,horse
1,1,21,2,116,exhausted,tired,926102.903473161,1,926106.803091648,926106.987079446,926107.538999976,926107.69902148,tired
1,1,22,2,40,quack,duck,926107.819951094,1,926108.867027624,926109.107012036,926109.515011949,926109.770995825,duck
1,1,23,2,27,department,copy,926109.88651682,1,926111.794922878,926112.026935329,926112.354886305,926112.626877493,copy
1,1,24,2,63,win,lose,926112.736384955,0,926117.058795404,,,0,""
1,1,33,3,59,acre,land,926379.308487739,1,926381.259068219,926381.819076623,926382.242976388,926382.786944276,land
1,1,34,3,117,document,train,926382.908342668,0,926386.290903542,,,0,""
1,1,35,3,106,avenue,street,926386.40816231,0,926388.474837912,,,0,""
1,1,36,3,111,gums,teeth,926388.591392455,0,926393.450688695,,,0,""
1,1,37,3,110,clue,tear,926393.574513087,0,926396.930553682,,,0,""
1,1,38,3,120,sofa,window,926397.041077787,1,926398.386527536,926399.042513706,926399.562462778,926400.178446666,window
1,1,39,3,48,click,forward,926400.290912598,0,926403.058410238,,,0,""
1,1,40,3,1,flight,airplane,926403.174143135,1,926406.226294131,926406.482290987,926407.498231891,926407.842227609,airplane
1,1,49,4,61,enemy,lawn,926680.97907096,1,926685.290127174,926685.466101657,926685.890081111,926686.434059865,lawn
1,1,50,4,84,umbrella,rain,926686.545496174,1,926688.97000176,926689.145978657,926689.921957486,926690.457945564,rain
1,1,51,4,47,neighbor,forever,926690.578664785,1,926692.657876077,926693.177886425,926695.369831092,926695.71378606,forever
1,1,52,4,71,chase,nail,926695.828414775,1,926697.793745044,926697.969765408,926698.345706325,926698.633707843,nail
1,1,53,4,31,doe,deer,926698.744989301,1,926699.977709901,926700.42568342,926700.873662976,926701.081666873,deer
1,1,54,4,87,fright,scare,926701.194884724,0,926704.161578165,,,0,""
1,1,55,4,115,spool,thread,926704.278088335,0,926706.153523193,,,0,""
1,1,56,4,29,danger,cracker,926706.261314918,1,926711.921341704,926712.089352979,926713.025217176,926713.321261894,cracker
1,1,65,5,22,table,chair,926976.649872723,1,926978.873548875,926979.057471171,926979.56145851,926980.60944694,chair
1,1,66,5,62,boom,lightning,926980.716354836,1,926981.657420278,926981.809392244,926983.265366703,926983.457352723,lightning
1,1,67,5,18,curtain,butter,926983.566231424,0,926986.129321152,,,0,""
1,1,68,5,95,month,snake,926986.249513336,1,926988.08926846,926988.369241571,926988.761349782,926988.913183499,snake
1,1,69,5,43,stumble,fall,926989.032672968,1,926990.369183313,926990.505160343,926990.865161563,926991.073154594,fall
1,1,70,5,96,customer,soap,926991.182578744,1,926992.705091762,926992.905117057,926993.321088932,926993.64905319,soap
1,1,71,5,2,halo,angel,926993.765538307,1,926994.945033009,926995.153048377,926995.977018052,926996.401007468,angel
1,1,72,5,7,keg,beer,926996.515703194,1,926998.712931511,926998.888909918,926999.552882841,927000.61685202,beer
1,1,81,6,99,meatballs,spaghetti,927269.720773072,1,927273.64089589,927274.080862131,927277.832749397,927278.024714288,spaghetti
1,1,82,6,75,pepperoni,pizza,927278.137091475,1,927279.920699359,927280.248683238,927280.960628291,927281.064623297,pizza
1,1,83,6,32,offense,defense,927281.186994263,1,927282.480631696,927282.632619358,927283.624552313,927283.920511908,defense
1,1,84,6,108,powder,sweat,927284.036856361,1,927285.408538119,927285.616503982,927286.392493377,927286.600463165,sweat
1,1,85,6,78,style,poor,927286.720096617,1,927287.976443624,927288.200452721,927289.768374526,927289.888364468,poor
1,1,86,6,46,fountain,flowers,927290.003256098,1,927291.38436264,927291.552318977,927292.368325143,927292.54434762,flowers
1,1,87,6,100,plenty,spider,927292.653157497,0,927295.024245509,,,0,""
1,1,88,6,107,pupil,student,927295.136401437,1,927296.752200892,927297.032162231,927298.248135977,927298.96013808,student
2,1,9,1,98,comedy,south,54515.0172079357,1,54517.816870279,54518.1768345029,54518.7927875606,54519.912797872,south
2,1,10,1,26,employment,cold,54520.0336992639,1,54521.9527531127,54522.1287324561,54522.5847009447,54523.1766693874,cold
2,1,11,1,13,marrow,bone,54523.2835709749,1,54525.5446406579,54526.328638458,54526.7766340098,54527.4245823513,bone
2,1,12,1,40,quack,duck,54527.5334112928,1,54529.4005763045,54530.0005665847,54530.4005313279,54530.9525427187,duck
2,1,13,1,81,jigsaw,puzzle,54531.0666200399,0,54533.4084940015,,,0,""
2,1,14,1,94,circus,smell,54533.5332262548,0,54533.552511869,,,0,""
2,1,15,1,70,cinema,movie,54533.6665303281,1,54537.3124272526,54539.0644035073,54539.6803251719,54539.9763112044,movie
2,1,16,1,97,barrel,soup,54540.0829882107,1,54543.2802919073,54543.4722805141,54544.0642347695,54544.5042202563,soup
2,1,25,2,46,bouquet,flowers,54875.0539493098,1,54876.6254280326,54877.6494274385,54878.7373757558,54880.2253307744,flowers
2,1,26,2,12,row,boat,54880.3370991949,1,54886.0172523086,54886.7772344025,54887.4971613411,54887.8651812105,boat
2,1,27,2,17,comb,brush,54887.986849318,1,54890.1371768928,54890.4971550021,54891.2731252294,54891.7531082168,hair
2,1,28,2,80,danger,push,54891.8700263098,0,54899.3290021951,,,0,""
2,1,29,2,74,goose,pepper,54899.453061912,0,54906.9288644881,,,0,""
2,1,30,2,91,tall,short,54907.052798029,1,54912.4167072161,54913.1206916016,54914.2006226093,54914.3846506554,short
2,1,31,2,44,medal,finish,54914.5025150687,1,54920.7285286426,54940.0481497402,54940.0481497402,54940.1921033122,z
2,1,32,2,86,impulse,rules,54940.3015851694,0,54946.5600163244,,,0,""
2,1,41,3,10,action,blood,55287.1055408183,0,55291.4409272791,,,0,""
2,1,42,3,84,umbrella,rain,55291.5553831284,1,55294.5048469104,55294.9208185021,55295.5527569765,55296.0568166451,rain
2,1,43,3,43,squad,fall,55296.1718888854,1,55298.0647790169,55298.4407328835,55298.9447047119,55299.192709742,fall
2,1,44,3,15,top,bottom,55299.3051187021,1,55302.8327059748,55304.3446676439,55305.8405611875,55306.200545334,bottom
2,1,45,3,21,class,card,55306.3215596203,0,55310.9204961193,,,0,""
2,1,46,3,4,question,answer,55311.0380369424,1,55314.3284516088,55314.752404891,55315.8403785643,55316.1123760577,answer
2,1,47,3,41,mate,eggs,55316.2211485521,1,55319.8003203905,55320.1522842088,55320.8003122404,55320.9122895456,eggs
2,1,48,3,96,lather,soap,55321.020992613,1,55324.8722440498,55325.0321945091,55325.5922138521,55325.9041696047,soap
2,1,57,4,106,neighbor,street,55665.0584198052,0,55671.8571044351,,,0,""
2,1,58,4,59,debate,land,55671.9748067514,1,55673.8810214342,55682.3208961396,55682.3208961396,55683.0888324551,z
2,1,59,4,87,fright,scare,55683.207777213,1,55686.5607625138,55686.8567497537,55688.0967290222,55688.5767702679,scared
2,1,60,4,28,cob,corn,55688.690904338,1,55691.520693775,55691.728643348,55692.1606314477,55692.5446397523,corn
2,1,61,4,50,ghoul,ghost,55692.6574341832,1,55695.7286092383,55696.656584457,55697.4085685601,55697.5685422623,ghost
2,1,62,4,24,cathedral,church,55697.6905641457,1,55699.9365141365,55700.1924957257,55700.95246001,55701.2644604375,church
2,1,63,4,117,branch,train,55701.3737349192,0,55707.032386188,,,0,""
2,1,64,4,52,judgment,headache,55707.1568956711,1,55709.5283391974,55709.8643245417,55711.0882302513,55712.14425241,headache
2,1,73,5,8,buckle,belt,56006.4792491741,0,56009.7781565742,,,0,""
2,1,74,5,51,bride,groom,56009.8957900672,0,56011.4661489022,,,0,""
2,1,75,5,37,sketch,draw,56011.5790631701,0,56012.8180523492,,,0,""
2,1,76,5,83,post,rabbit,56012.9290516392,0,56016.4660185002,,,0,""
2,1,77,5,47,warehouse,forever,56016.5788826599,1,56022.2099049997,56034.7696505588,56035.5455595092,56036.1935642979,dream
2,1,78,5,92,pump,sick,56036.3115096087,1,56041.3775020888,56041.6974507008,56042.6894702176,56043.3214180496,rabbit
2,1,79,5,105,rob,steal,56043.4445815544,0,56045.7774221572,,,0,""
2,1,80,5,48,wall,forward,56045.8945334385,1,56049.9053229986,56050.2173240297,56051.3932324368,56051.5612557474,forward
2,1,89,6,78,pity,poor,56362.1495850076,1,56364.4748339185,56364.8668299509,56365.5067739626,56365.6987698139,poor
2,1,90,6,2,halo,angel,56365.8161603124,1,56369.3467730932,56370.9547408381,56371.7866556469,56372.3786820461,angel
2,1,91,6,120,pane,window,56372.4992305677,1,56374.6826503729,56375.0586244639,56375.8025927666,56376.0105695067,window
2,1,92,6,11,detail,board,56376.1324286894,0,56379.5145464666,,,0,""
2,1,93,6,85,boulder,rock,56379.6322786667,1,56381.9224874669,56382.2905046196,56382.6424322151,56383.0184253231,rock
2,1,94,6,33,weed,dirt,56383.1321699984,0,56389.3863519188,,,0,""
2,1,95,6,16,respiration,breathe,56389.4986078376,1,56396.8742034006,56397.4021906333,56399.6420983618,56400.0181053552,breath
2,1,96,6,42,fountain,elephant,56400.1315439479,0,56402.7380757612,,,0,""
3,1,1,1,13,marrow,bone,928666.128104982,1,928670.519931564,928670.871933655,928671.095923735,928673.727830114,bone
3,1,2,1,36,upstairs,downstairs,928673.844442915,0,928679.455666567,,,0,""
3,1,3,1,83,trash,rabbit,928679.577553359,1,928682.151596762,928682.535573331,928683.071538166,928683.535535297,rabbit
3,1,4,1,96,lather,soap,928683.644024304,1,928686.271489809,928686.911461121,928687.223431348,928687.687394068,soap
3,1,5,1,53,link,high,928687.810532045,1,928689.759375657,928690.175344815,928690.479323461,928691.719300931,high
3,1,6,1,84,medal,rain,928691.82702504,0,,,,0,""
3,1,7,1,80,shove,push,928701.843280476,1,928706.790868376,928713.390662331,928713.686646376,928713.958642696,push
3,1,8,1,49,denial,frog,928714.076093141,0,,,,0,""
3,1,17,2,72,niece,nephew,929029.862775408,1,929033.525287056,929034.173234253,929034.605213741,929035.045214393,nephew
3,1,18,2,61,comedy,lawn,929035.162524175,1,929037.957157575,929038.341149538,929038.589134588,929038.97312474,lawn
3,1,19,2,117,turtle,train,929039.0957227,1,929040.685072208,929040.901067687,929041.173052537,929041.517013542,train
3,1,20,2,105,instant,steal,929041.628921648,0,929044.156943802,,,0,""
3,1,21,2,27,xerox,copy,929044.27883482,1,929050.268810856,929050.468787251,929050.844764993,929051.044730521,print
3,1,22,2,22,table,chair,929051.161851342,0,929055.060664785,,,0,""
3,1,23,2,94,goose,smell,929055.178377239,1,929056.508593026,929056.652592125,929057.100504971,929057.284557366,smell
3,1,24,2,42,tusk,elephant,929057.394890398,1,929061.220502158,929063.70837231,929063.972351692,929064.180378229,horn
3,1,33,3,77,fraud,pool,929378.998015311,1,929388.938856173,929389.122891362,929389.63486334,929389.89883095,movie
3,1,34,3,16,buzz,breathe,929390.014214904,0,929391.546795353,,,0,""
3,1,35,3,97,broth,soup,929391.664141357,1,929393.122750094,929393.282711228,929393.562723881,929393.674716808,soup
3,1,36,3,8,buckle,belt,929393.797366687,1,929395.338662262,929395.562671962,929395.858655102,929396.082646691,belt
3,1,37,3,10,plasma,blood,929396.19725488,0,929398.306609604,,,0,""
3,1,38,3,4,mate,answer,929398.43053391,0,929404.242425807,,,0,""
3,1,39,3,7,trailer,beer,929404.363575773,1,929408.082307407,929408.250299967,929408.722260004,929409.002266923,beer
3,1,40,3,5,teller,bank,929409.113384473,1,929411.794196919,929411.938168248,929412.090166174,929412.322155684,bank
3,1,49,4,51,bride,groom,929686.284990828,0,929688.994071891,,,0,""
3,1,50,4,119,impulse,west,929689.101503504,0,929692.289977756,,,0,""
3,1,51,4,62,thunder,lightning,929692.401409537,1,929694.84990315,929695.145895044,929695.865828056,929695.953855293,lightning
3,1,52,4,11,driver,board,929696.067907467,1,929698.241817571,929698.481776024,929698.913798979,929699.329737046,board
3,1,53,4,39,intoxicated,drunk,929699.451101329,1,929700.793704294,929701.209701524,929701.58569285,929701.745688696,drunk
3,1,54,4,88,itch,scratch,929701.867654574,0,929703.913638997,,,0,""
3,1,55,4,14,policeman,book,929704.034273397,0,929707.29755278,,,0,""
3,1,56,4,120,plenty,window,929707.417421377,0,929710.001457049,,,0,""
3,1,65,5,26,chill,cold,929976.622686856,1,929979.265578,929980.457499424,929982.745449628,929982.841445204,cold
3,1,66,5,71,hammer,nail,929982.955749426,1,929984.937397313,929985.121389035,929985.369376198,929986.473347056,nail
3,1,67,5,63,win,lose,929986.588921479,0,929990.049248671,,,0,""
3,1,68,5,41,month,eggs,929990.172114073,0,929991.601204216,,,0,""
3,1,69,5,47,class,forever,929991.722032406,1,929995.857091499,929996.105031874,929996.585018206,929996.825056952,forever
3,1,70,5,30,permission,cute,929996.938477044,1,929998.528996236,929998.640996709,929998.952975087,929999.096967244,cute
3,1,71,5,46,bouquet,flowers,929999.205043918,1,930000.8649397,930001.056915458,930001.600894514,930001.70488137,flowers
3,1,72,5,48,type,forward,930001.821616422,1,930003.776846659,930003.984838181,930004.472810963,930004.592792453,forward
3,1,81,6,114,thick,thin,930264.84380389,0,930266.905124906,,,0,""
3,1,82,6,81,jigsaw,puzzle,930267.027040676,0,930267.681113696,,,0,""
3,1,83,6,45,customer,flag,930267.793634867,0,,,,0,""
3,1,84,6,50,theft,ghost,930277.809903283,1,930280.3447579,930280.992705399,930281.20868971,930281.368690989,ghost
3,1,85,6,95,leather,snake,930281.476419325,1,930285.912579791,930293.936329958,930294.304316118,930294.608275445,snake
3,1,86,6,60,giggle,laugh,930294.725859612,0,930296.752234096,,,0,""
3,1,87,6,59,plate,land,930296.875756031,0,930298.408205174,,,0,""
3,1,88,6,18,margarine,butter,930298.525668297,0,930299.02416099,,,0,""
5,1,1,1,31,doe,deer,57298.7636593102,1,57302.9355798906,57306.6794461657,57308.0234328212,57308.3034231739,deer
5,1,2,1,43,stumble,fall,57308.4132983502,0,57311.0873802233,,,0,""
5,1,3,1,54,style,horse,57311.196539094,1,57314.0713175313,57314.8153250753,57315.8872608089,57317.4392685775,horse
5,1,4,1,60,giggle,laugh,57317.5462767203,1,57320.9111684504,57321.8951724688,57322.5111487694,57323.8951265866,laugh
5,1,5,1,18,chef,butter,57324.0127069528,1,57325.4710890863,57325.8551155024,57326.6470684297,57326.7830182756,butter
5,1,6,1,74,goose,pepper,57326.8959403918,0,57329.7669764117,,,0,""
5,1,7,1,58,barrel,jelly,57329.8791752796,1,57331.5989654773,57332.2789429105,57332.7829247001,57333.1349196096,jelly
5,1,8,1,64,noisy,loud,57333.2457359745,0,57336.6388642708,,,0,""
5,1,17,2,96,lather,soap,57499.8228723944,0,57503.2754622027,,,0,""
5,1,18,2,47,eternity,forever,57503.3894501743,0,57507.9313566157,,,0,""
5,1,19,2,95,wealth,snake,57508.0389298341,0,57511.0912802098,,,0,""
5,1,20,2,87,fright,scare,57511.2058112213,0,57514.2832193121,,,0,""
5,1,21,2,5,customer,bank,57514.4056885468,0,57516.3791795056,,,0,""
5,1,22,2,45,banner,flag,57516.4886332902,0,57518.9551220829,,,0,""
5,1,23,2,48,audience,forward,57519.0721826522,0,57520.8030980744,,,0,""
5,1,24,2,52,alarm,headache,57520.9221279558,0,57521.6830901778,,,0,""
5,1,33,3,94,odor,smell,57684.8661380957,0,57688.6796490133,,,0,""
5,1,34,3,66,plus,minus,57688.7992874375,0,57691.2635844498,,,0,""
5,1,35,3,73,soda,orange,57691.3825337355,1,57692.439551417,57692.9596333288,57695.1114409061,57695.3514400972,orange
5,1,36,3,44,concert,finish,57695.4657121158,1,57696.8394476388,57697.0874119183,57697.9353885135,57698.2553962893,finish
5,1,37,3,78,rich,poor,57698.3656192044,0,57704.5993264977,,,0,""
5,1,38,3,37,action,draw,57704.7153794699,0,57708.0232719317,,,0,""
5,1,39,3,113,quiz,test,57708.1318774994,0,57710.1271800079,,,0,""
5,1,40,3,36,cell,downstairs,57710.2484928303,0,57711.8471682234,,,0,""
5,1,49,4,56,front,husband,57875.0424380107,1,57879.0597211087,57879.6117134826,57880.3716771632,57881.2436637294,husband
5,1,50,4,108,coast,sweat,57881.3588663717,0,57885.0276286271,,,0,""
5,1,51,4,59,acre,land,57885.1420757225,1,57889.2115138951,57890.291498935,57890.643463357,57891.2434554484,lawn
5,1,52,4,81,jigsaw,puzzle,57891.3585131996,1,57892.8034340407,57893.227450411,57893.9233860938,57894.0993959247,puzzle
5,1,53,4,2,halo,angel,57894.2083733796,1,57896.4513826841,57896.8193307116,57897.8352983188,57898.2833186229,angel
5,1,54,4,102,pity,stamp,57898.3915471717,0,57900.3952675536,,,0,""
5,1,55,4,41,sofa,eggs,57900.5081727658,0,57902.0512754646,,,0,""
5,1,56,4,100,cobweb,spider,57902.1747586355,1,57904.883186953,57905.419160706,57906.1551491292,57906.4831277288,spider
5,1,65,5,6,port,bear,58069.6686164587,0,58074.6637016305,,,0,""
5,1,66,5,69,chimpanzee,monkey,58074.785123725,1,58076.3676624713,58077.7515904821,58079.5035619072,58079.7355552591,monkey
5,1,67,5,84,boom,rain,58079.8515747252,0,58083.7835151315,,,0,""
5,1,68,5,88,itch,scratch,58083.9014408216,1,58085.4554665012,58086.0634523574,58087.4633944613,58089.8793666567,scratch
5,1,69,5,38,addiction,drug,58090.0011932389,1,58092.9752867033,58093.1832878939,58093.5992975195,58093.9832916369,drug
5,1,70,5,10,plasma,blood,58094.101036515,0,58098.5192122631,,,0,""
5,1,71,5,27,hair,copy,58098.6342165857,0,58099.9751774313,,,0,""
5,1,72,5,116,judgment,tired,58100.0841811477,0,58101.6071491099,,,0,""
5,1,81,6,90,blouse,shirt,58264.7947677395,1,58267.1797570779,58267.4357121037,58267.9557073827,58268.4836774095,shirt
5,1,82,6,7,keg,beer,58268.5946622105,1,58269.9156902614,58270.1396430607,58270.5716356881,58270.7556395857,beer
5,1,83,6,57,denim,jeans,58270.8778791077,1,58272.1396379291,58272.3956240461,58272.8755940537,58273.1076046114,jeans
5,1,84,6,25,wardrobe,clothes,58273.2277987535,1,58275.8835896297,58276.3395016711,58278.5634387738,58278.8354344561,clothes
5,1,85,6,55,impulse,hungry,58278.9442298915,0,58281.6274432268,,,0,""
5,1,86,6,34,writer,dirty,58281.7441777911,1,58283.0274149127,58283.3313901822,58283.9633377123,58284.2353318852,dirty
5,1,87,6,12,illness,boat,58284.3440316322,1,58286.3233496296,58286.5793125036,58286.9392909148,58287.5713145128,sick
5,1,88,6,109,branch,tail,58287.6939108292,0,58290.0272757568,,,0,""
4,1,9,1,118,aunt,uncle,933477.835762323,0,933483.807816415,,,0,""
4,1,10,1,27,xerox,copy,933483.918737058,0,933487.167680582,,,0,""
4,1,11,1,62,thunder,lightning,933487.285228953,0,933490.871514383,,,0,""
4,1,12,1,29,medal,cracker,933490.985018866,1,933492.887440309,933493.68740288,933494.78331975,933494.983320052,cracker
4,1,13,1,1,hook,airplane,933495.101444354,1,933501.591064023,933502.455004377,933503.382975943,933503.822951794,airplane
4,1,14,1,98,buzz,south,933503.934275408,1,933505.454920764,933506.110889855,933506.630866009,933506.822834073,south
4,1,15,1,3,zoo,animal,933506.934109692,0,933509.934726976,,,0,""
4,1,16,1,66,detail,minus,933510.050611247,1,933513.446522684,933514.118597905,933514.750531558,933515.046519967,minus
4,1,25,2,86,sweetheart,rules,933812.783369254,1,933814.618257116,933814.858206707,933815.474144405,933815.658164146,rules
4,1,26,2,74,plate,pepper,933815.766544719,0,933821.737922364,,,0,""
4,1,27,2,4,question,answer,933821.849553262,1,933826.177728878,933826.537730689,933827.353673217,933827.481659573,answer
4,1,28,2,13,marrow,bone,933827.59920553,0,933832.153492408,,,0,""
4,1,29,2,37,writer,draw,933832.265605361,1,933835.60938332,933836.433306167,933836.977276404,933837.113272058,draw
4,1,30,2,88,branch,scratch,933837.232007909,1,933839.601193214,933840.089166591,933841.033099097,933841.297085635,scratch
4,1,31,2,59,acre,land,933841.415103082,0,933845.624958194,,,0,""
4,1,32,2,44,done,finish,933845.748162939,1,933850.136764164,933851.272719672,933851.768680914,933852.024671738,finish
4,1,41,3,23,inexpensive,cheap,934133.048566211,0,934140.004851037,,,0,""
4,1,42,3,120,pane,window,934140.114826285,1,934141.260795678,934141.644782215,934142.124731202,934142.484715204,window
4,1,43,3,112,contact,television,934142.598024088,0,934152.452324248,,,0,""
4,1,44,3,78,rich,poor,934152.564098826,0,934157.212142232,,,0,""
4,1,45,3,36,campus,downstairs,934157.330518277,1,934158.884066528,934159.188052763,934161.675925926,934162.219943554,downstairs
4,1,46,3,21,ashes,card,934162.330240877,1,934164.139847867,934164.691828006,934165.259802288,934165.379776631,card
4,1,47,3,82,bluff,queen,934165.496747864,0,934174.491441335,,,0,""
4,1,48,3,96,lather,soap,934174.61291195,1,934176.963323674,934177.259288841,934177.611291316,934177.899253524,soap
4,1,57,4,33,judgment,dirt,934460.080034109,0,934468.583339672,,,0,""
4,1,58,4,80,shove,push,934468.696175858,1,934470.791260225,934471.247235655,934471.663212895,934471.887178001,push
4,1,59,4,69,chimpanzee,monkey,934471.996008935,1,934475.575042712,934476.367008361,934477.038978237,934477.350982825,monkey
4,1,60,4,7,navy,beer,934477.462379788,1,934479.030898307,934479.286890036,934479.678867759,934479.806857134,beer
4,1,61,4,116,exhausted,tired,934479.928910622,1,934481.350816203,934481.542809321,934482.126770503,934482.238771771,tired
4,1,62,4,93,moonlight,small,934482.345110024,1,934484.870676145,934485.134662984,934486.15061668,934486.334586012,small
4,1,63,4,109,wag,tail,934486.445223822,1,934487.950494129,934488.11052039,934488.702462193,934488.966478916,tail
4,1,64,4,39,sofa,drunk,934489.078376951,1,934490.262459477,934492.678323221,934493.838269492,934494.118274322,drunk
4,1,73,5,87,state,scare,934811.110159377,1,934814.633134112,934814.833119321,934815.377086842,934815.57708322,scare
4,1,74,5,50,yard,ghost,934815.693231308,1,934823.528772073,934823.968699025,934824.496689607,934824.808700534,ghost
4,1,75,5,53,low,high,934824.926076549,1,934826.504640043,934826.952603157,934827.256603882,934827.64858734,high
4,1,76,5,9,chirp,bird,934827.759213076,1,934829.040527634,934829.304525642,934829.712477889,934829.88048296,bird
4,1,77,5,72,armor,nephew,934829.992416916,1,934831.392430801,934831.672431103,934833.680339582,934834.024328534,nephew
4,1,78,5,51,bride,groom,934834.142184491,1,934835.256258867,934835.520262912,934836.056238039,934836.224208397,groom
4,1,79,5,52,migraine,headache,934836.342059827,1,934837.464186362,934837.728182559,934838.688103474,934839.040119533,headache
4,1,80,5,92,alarm,sick,934839.158538742,1,934840.264092487,934840.480064596,934840.80800809,934841.800009056,sick
4,1,89,6,77,chlorine,pool,935118.776066588,1,935122.340543633,935122.564509946,935123.084446859,935124.724392224,pool
4,1,90,6,41,omelet,eggs,935124.842386429,1,935126.508329862,935126.756271243,935127.796199402,935128.060216729,eggs
4,1,91,6,42,employment,elephant,935128.175528389,1,935129.444192701,935129.636178877,935130.756099792,935131.084118144,elephant
4,1,92,6,89,class,sheriff,935131.192012738,1,935132.70806846,935133.188010504,935134.011978025,935134.347997223,sheriff
4,1,93,6,12,junk,boat,935134.458509463,0,935141.891678892,,,0,""
4,1,94,6,20,wick,candle,935142.008070874,1,935144.131570527,935144.331581696,935144.939520662,935145.347504301,candle
4,1,95,6,49,furniture,frog,935145.457884029,1,935148.603423285,935149.147369374,935149.483330013,935149.643333937,frog
4,1,96,6,107,pupil,student,935149.757627758,1,935151.083336352,935165.170726252,935166.186673307,935166.322659302,class
6,1,9,1,38,picture,drug,936080.446383956,1,936086.55855709,936094.926227813,936094.926227813,936096.230205855,z
6,1,10,1,120,curtain,window,936096.34574466,1,936100.64611585,936101.158089941,936102.33402156,936102.582032268,window
6,1,11,1,15,top,bottom,936102.69543123,1,936106.973908353,936107.325886598,936108.021871428,936108.333855541,pine
6,1,12,1,86,theft,rules,936108.445213971,1,936112.309763374,936112.589747955,936113.245709675,936113.493724005,rules
6,1,13,1,65,arithmetic,math,936113.611639607,1,936115.589654984,936116.25365779,936116.677632415,936116.925597542,math
6,1,14,1,93,tree,small,936117.044828322,1,936119.181559081,936119.637540784,936120.141531746,936120.381502574,small
6,1,15,1,12,row,boat,936120.494684202,0,936123.253455246,,,0,""
6,1,16,1,50,ghoul,ghost,936123.377921983,1,936125.845373229,936126.965302498,936127.581310535,936127.877249302,ghost
6,1,25,2,99,meatballs,spaghetti,936291.070813415,0,936293.120441818,,,0,""
6,1,26,2,100,link,spider,936293.237389978,0,936295.96039043,,,0,""
6,1,27,2,64,goose,loud,936296.070643471,1,936298.496340474,936298.760298727,936299.320283586,936299.672240097,loud
6,1,28,2,1,trailer,airplane,936299.787127501,1,936301.368234586,936301.784197707,936303.064111051,936303.408111599,airplane
6,1,29,2,46,bouquet,flowers,936303.520299222,0,936305.36007125,,,0,""
6,1,30,2,95,appeal,snake,936305.470234036,0,936306.360076079,,,0,""
6,1,31,2,16,respiration,breathe,936306.47020687,0,936307.176051757,,,0,""
6,1,32,2,35,vanish,disappear,936307.286828213,0,936308.20799937,,,0,""
6,1,41,3,5,teller,bank,936471.396557839,0,936474.227172224,,,0,""
6,1,42,3,48,class,forward,936474.346419907,0,936475.419095157,,,0,""
6,1,43,3,89,deputy,sheriff,936475.529425171,0,936476.243095922,,,0,""
6,1,44,3,111,gums,teeth,936476.362955765,0,936477.059073109,,,0,""
6,1,45,3,61,port,lawn,936477.179689097,1,936479.386983637,936481.154948849,936481.906894977,936482.1708973,ship
6,1,46,3,108,neighbor,sweat,936482.279434,0,936485.058821967,,,0,""
6,1,47,3,115,spool,thread,936485.179322344,0,936485.970786278,,,0,""
6,1,48,3,58,armor,jelly,936486.079265626,0,936487.834713258,,,0,""
6,1,57,4,92,ill,sick,936651.022278025,0,936655.101872973,,,0,""
6,1,58,4,63,win,lose,936655.22210138,1,936658.029736231,936659.093706014,936659.589692716,936659.797693595,lose
6,1,59,4,40,debate,duck,936659.905229649,0,936661.421652161,,,0,""
6,1,60,4,4,question,answer,936661.538486523,1,936664.093594026,936664.525579552,936666.605518916,936666.997473181,answer
6,1,61,4,56,soda,husband,936667.104969391,0,936669.037442863,,,0,""
6,1,62,4,49,chase,frog,936669.154872782,1,936671.981334864,936673.085290026,936673.677247853,936673.933277913,frog
6,1,63,4,57,denim,jeans,936674.054640083,0,936675.549227692,,,0,""
6,1,64,4,71,impulse,nail,936675.671270542,1,936677.981191484,936678.389162117,936679.605101753,936679.981086137,purchase
6,1,73,5,21,style,card,936843.164181956,0,936848.352217011,,,0,""
6,1,74,5,27,leather,copy,936848.46394642,0,936849.376135914,,,0,""
6,1,75,5,70,cinema,movie,936849.497224604,0,936850.128105586,,,0,""
6,1,76,5,73,tangerine,orange,936850.247203852,0,936851.016080663,,,0,""
6,1,77,5,110,post,tear,936851.130500495,0,936851.912051849,,,0,""
6,1,78,5,53,low,high,936852.030455851,0,936852.824029442,,,0,""
6,1,79,5,94,fraud,smell,936852.947108255,0,936855.1599883,,,0,""
6,1,80,5,113,quiz,test,936855.280336543,0,936855.975924435,,,0,""
6,1,89,6,36,upstairs,downstairs,937019.173356202,0,,,,0,""
6,1,90,6,45,moonlight,flag,937029.189632768,1,937032.274765226,937034.930732077,937036.074652694,937036.226648205,sunlight
6,1,91,6,13,lieutenant,bone,937036.33930672,1,937039.162593903,937040.050573205,937040.914511354,937041.082505122,bones
6,1,92,6,31,doe,deer,937041.189178478,1,937043.010485197,937043.546443391,937044.170444821,937044.426434432,deer
6,1,93,6,18,plate,butter,937044.538978846,0,937046.578359913,,,0,""
6,1,94,6,39,intoxicated,drunk,937046.688838137,0,937048.538308127,,,0,""
6,1,95,6,101,substance,square,937048.655463661,1,937053.338172353,937131.015898947,937132.359827352,937132.58382528,house
6,1,96,6,19,icing,cake,937132.701904789,0,937134.535781912,,,0,""
7,1,1,1,25,gang,clothes,939669.174630988,1,939672.121544568,939672.481538531,939673.417452081,939674.049433729,clothes
7,1,2,1,33,state,dirt,939674.157646171,1,939675.825402216,939676.249376377,939676.609325968,939677.297314739,dirt
7,1,3,1,22,turtle,chair,939677.407485587,1,939679.169256241,939679.48923813,939680.041168463,939680.425176432,chair
7,1,4,1,82,king,queen,939680.540667995,0,939685.321004558,,,0,""
7,1,5,1,103,astronomy,star,939685.440395424,1,939688.576875547,939689.016860756,939690.008770262,939691.02474388,picture
7,1,6,1,44,done,finish,939691.140061879,0,939695.888558061,,,0,""
7,1,7,1,116,buzz,tired,939696.006445712,1,939697.888501313,939698.248472637,939698.920421685,939699.288421323,tired
7,1,8,1,74,salt,pepper,939699.406258263,0,939703.11227897,,,0,""
7,1,17,2,12,row,boat,939986.973244891,0,939992.484405204,,,0,""
7,1,18,2,101,front,square,939992.606239548,1,939995.12428386,939996.26822512,939997.596161973,939998.180113798,picture
7,1,19,2,118,liver,uncle,939998.289248091,1,940001.148019862,940001.588012315,940002.555931661,940003.355902683,uncle
7,1,20,2,9,chirp,bird,940003.472301307,1,940006.227791965,940006.459799571,940006.963749283,940007.523796975,navy
7,1,21,2,99,sailor,spaghetti,940007.638720758,1,940009.163654502,940009.61966555,940011.907569501,940012.251543964,spaghetti
7,1,22,2,3,ashes,animal,940012.371852154,0,940016.011398473,,,0,""
7,1,23,2,100,cobweb,spider,940016.121570527,1,940021.691182348,940026.970932718,940027.602892934,940028.338854478,couch
7,1,24,2,73,tangerine,orange,940028.45419572,1,940032.18674545,940032.522703674,940033.746643726,940034.146622597,soccer
7,1,33,3,52,chase,headache,940307.205078632,1,940310.903298319,940311.279241148,940312.751208609,940313.26318754,headache
7,1,34,3,88,itch,scratch,940313.371374325,0,940316.687051224,,,0,""
7,1,35,3,18,margarine,butter,940316.804531076,1,940318.646986628,940319.158957409,940320.422881765,940320.870861179,illness
7,1,36,3,8,buckle,belt,940320.987619004,1,940324.718736454,940325.302704579,940326.33465091,940326.902608591,alarm
7,1,37,3,34,armor,dirty,940327.020607927,1,940328.014577862,940328.542535845,940329.278506445,940329.67847475,dirty
7,1,38,3,38,addiction,drug,940329.787102237,0,940332.590412931,,,0,""
7,1,39,3,48,class,forward,940332.703643032,1,940334.918306318,940335.766243774,940343.397955869,940343.957925383,forward
7,1,40,3,19,leather,cake,940344.069626309,1,940346.029813155,940346.213800598,940346.829758218,940347.085749645,cake
7,1,49,4,75,pepperoni,pizza,940624.203454677,1,940628.290281928,940629.554205077,940629.882223731,940630.498146035,scar
7,1,50,4,41,territory,eggs,940630.620061577,1,940631.77811585,940631.978080534,940632.258085967,940632.570069426,eggs
7,1,51,4,95,print,snake,940632.686585469,1,940639.169832775,940639.713785203,940640.169760331,940640.857727067,snake
7,1,52,4,63,win,lose,940640.96947146,0,940644.793608017,,,0,""
7,1,53,4,106,retreat,street,940644.902578406,1,940645.961527665,940646.145517221,940646.817458722,940647.337412841,street
7,1,54,4,97,broth,soup,940647.452437442,1,940652.905220804,940653.265212955,940654.065180657,940654.44118265,bluff
7,1,55,4,36,upstairs,downstairs,940654.551994325,0,940656.497088654,,,0,""
7,1,56,4,120,union,window,940656.618593076,0,940658.889005403,,,0,""
7,1,65,5,42,pump,elephant,940923.303468864,0,940927.069973739,,,0,""
7,1,66,5,69,wall,monkey,940927.186570376,0,940930.60582873,,,0,""
7,1,67,5,72,niece,nephew,940930.719716563,1,940934.853651484,940935.141644179,940935.613573003,940935.92557578,shoes
7,1,68,5,89,deputy,sheriff,940936.036061759,1,940941.349408675,940946.757145099,940948.797062091,940949.261067041,employment
7,1,69,5,109,wag,tail,940949.368638353,0,940951.676972139,,,0,""
7,1,70,5,62,thunder,lightning,940951.78513538,0,940952.788931752,,,0,""
7,1,71,5,81,lieutenant,puzzle,940952.90178635,1,940956.324784932,940956.772777023,940958.060682182,940958.244693773,puzzle
7,1,72,5,30,powder,cute,940958.351431072,1,940959.828646201,940960.236599052,940960.684535905,940960.988555646,cute
7,1,81,6,85,neighbor,rock,941228.986106131,1,941230.969474177,941231.177448157,941231.553439283,941232.081432582,rock
7,1,82,6,37,sketch,draw,941232.202585348,0,941236.753222554,,,0,""
7,1,83,6,94,trailer,smell,941236.869006912,0,941239.473149506,,,0,""
7,1,84,6,46,post,flowers,941239.58553503,0,941242.025001962,,,0,""
7,1,85,6,102,postage,stamp,941242.135383803,1,941244.568929035,941245.136866793,941245.968826104,941246.640804733,writer
7,1,86,6,111,customer,teeth,941246.751785143,0,941250.304673247,,,0,""
7,1,87,6,119,east,west,941250.418228742,1,941255.304487005,941255.648463582,941263.728108002,941264.168085967,judgemental
7,1,88,6,87,fright,scare,941264.284102146,1,941268.343929186,941268.89593468,941269.703893266,941270.543857647,click
9,1,1,1,46,bouquet,flowers,941579.246149778,1,941581.853456272,941582.309388169,941583.765327009,941584.093321151,flowers
9,1,2,1,26,chef,cold,941584.212574267,1,941586.45330124,941586.813280424,941587.333230703,941587.741202845,cold
9,1,3,1,103,astronomy,star,941587.862500721,0,941593.501085618,,,0,""
9,1,4,1,29,picture,cracker,941593.612192603,0,941598.300955277,,,0,""
9,1,5,1,15,top,bottom,941598.411921297,0,941604.052778852,,,0,""
9,1,6,1,3,zoo,animal,941604.161723658,1,941605.836711833,941606.18868072,941607.164661602,941607.588641661,animals
9,1,7,1,105,click,steal,941607.711567434,0,941613.812498623,,,0,""
9,1,8,1,98,sofa,south,941613.92798581,1,941615.284445378,941615.564439015,941616.236379975,941616.660362146,south
9,1,17,2,39,intoxicated,drunk,941779.854373305,1,941782.175531059,941786.215450633,941787.039383783,941787.415363035,drunk
9,1,18,2,48,massage,forward,941787.537363928,1,941789.055351553,941789.343324999,941790.463268758,941790.719265915,forward
9,1,19,2,86,regulations,rules,941790.837204459,1,941791.791240864,941792.271239874,941792.999234197,941793.503185011,rules
9,1,20,2,59,acre,land,941793.620422952,1,941795.359129465,941795.591154896,941795.99911919,941796.223099611,land
9,1,21,2,63,win,lose,941796.336965239,0,941802.158954451,,,0,""
9,1,22,2,65,type,math,941802.27007019,1,941805.678864583,941806.99082334,941807.654757927,941808.158790242,math
9,1,23,2,58,burst,jelly,941808.269829914,0,941812.614656938,,,0,""
9,1,24,2,110,debate,tear,941812.736311001,0,941815.070628378,,,0,""
9,1,33,3,6,grizzly,bear,941978.262650923,1,941982.04963444,941982.577694929,941983.249664867,941984.425559358,bear
9,1,34,3,57,wreck,jeans,941984.545703246,1,941987.425510759,941987.825497357,941989.041486498,941990.169425762,jeans
9,1,35,3,34,ashes,dirty,941990.27878592,1,941991.673409479,941991.977416197,941992.745368127,941993.017331243,dirty
9,1,36,3,7,class,beer,941993.128681825,1,941994.561334448,941995.00928412,941995.489294299,941995.753257381,beer
9,1,37,3,100,cobweb,spider,941995.861923576,1,941997.545209111,941997.8412004,941998.641181142,941999.297146485,spider
9,1,38,3,51,bride,groom,941999.411732337,1,942000.641124092,942001.385112445,942001.945085834,942002.721080359,groom
9,1,39,3,24,cathedral,church,942002.828258717,1,942004.105046061,942004.633004222,942006.432953269,942006.744933458,church
9,1,40,3,81,campus,puzzle,942006.861419178,1,942008.464922011,942008.736909578,942009.272895844,942009.792872384,bell
9,1,49,4,44,done,finish,942172.987765258,1,942175.956047658,942176.355996222,942177.07596757,942177.387932364,finish
9,1,50,4,20,wick,candle,942177.50422037,1,942179.107905523,942179.595870458,942180.363842914,942180.739833032,candle
9,1,51,4,119,plenty,west,942180.854080808,0,942183.395769699,,,0,""
9,1,52,4,30,cell,cute,942183.503983113,0,942184.763744389,,,0,""
9,1,53,4,118,detail,uncle,942184.887176371,0,942185.907726584,,,0,""
9,1,54,4,54,danger,horse,942186.020555043,0,942187.347680449,,,0,""
9,1,55,4,33,soil,dirt,942187.47047401,1,942189.043584986,942190.51555589,942191.49951809,942191.61951739,dirty
9,1,56,4,71,hammer,nail,942191.736934933,1,942193.179507984,942193.499450173,942196.243380269,942196.539348617,nail
9,1,65,5,64,territory,loud,942359.729821746,0,942363.406529885,,,0,""
9,1,66,5,19,icing,cake,942363.529394683,1,942365.662438901,942366.014409599,942366.870374278,942367.150362783,cake
9,1,67,5,22,table,chair,942367.262845619,0,942369.774331613,,,0,""
9,1,68,5,90,concert,shirt,942369.896094041,0,942372.158235736,,,0,""
9,1,69,5,74,plate,pepper,942372.279302391,0,942374.366224239,,,0,""
9,1,70,5,109,wag,tail,942374.479186721,1,942376.334127813,942376.614097,942377.358074486,942378.366038297,tail
9,1,71,5,107,leather,student,942378.479068696,1,942379.630020698,942380.022008469,942381.509942615,942381.765910794,student
9,1,72,5,79,tapioca,pudding,942381.878897424,1,942383.341896627,942383.645915419,942384.557862826,942384.901872128,pudding
9,1,81,6,10,plasma,blood,942548.088535559,0,942553.0089714,,,0,""
9,1,82,6,66,plus,minus,942553.121656176,0,942557.552812509,,,0,""
9,1,83,6,62,turtle,lightning,942557.671466747,0,942560.256722815,,,0,""
9,1,84,6,83,state,rabbit,942560.371372659,0,942561.800670478,,,0,""
9,1,85,6,96,permission,soap,942561.921268354,0,942563.200629607,,,0,""
9,1,86,6,94,odor,smell,942563.321231709,1,942564.568598562,942564.896545916,942566.336502196,942566.97652603,smell
9,1,87,6,27,comedy,copy,942567.087719648,0,942570.63242104,,,0,""
9,1,88,6,18,margarine,butter,942570.754248367,1,942571.960409447,942572.560370025,942573.488321424,942573.7843106,butter
10,1,9,1,7,keg,beer,68748.6011684263,1,68752.4521038193,68752.6201144519,68753.1961059299,68753.460116903,beer
10,1,10,1,52,migraine,headache,68753.5676889139,1,68756.83604481,68757.0360259742,68763.0038640656,68763.9878475576,headache
10,1,11,1,98,vampire,south,68764.1006069731,0,68770.3157848028,,,0,""
10,1,12,1,107,pupil,student,68770.4337421879,1,68777.3556479773,68777.619596768,68778.4195790792,68778.8515406154,student
10,1,13,1,55,novel,hungry,68778.9667251463,0,68783.1315155734,,,0,""
10,1,14,1,117,caboose,train,68783.24992846,1,68785.1474629562,68785.4594395369,68785.8754020729,68786.1313981512,train
10,1,15,1,2,fountain,angel,68786.2497890023,1,68794.8512819243,68795.2112398093,68795.6272147214,68795.9311966318,angel
10,1,16,1,47,interest,forever,68796.0494404787,0,68805.0990675048,,,0,""
10,1,25,2,17,comb,brush,68968.2930725132,1,68974.4875807164,68974.6955136874,68975.3755333805,68975.679512876,style
10,1,26,2,31,doe,deer,68975.7928328391,1,68980.3194312298,68980.4314686045,68981.1194210875,68981.303389366,deer
10,1,27,2,18,writer,butter,68981.4259545911,0,68987.5273228464,,,0,""
10,1,28,2,69,strawberry,monkey,68987.6424062554,0,68993.247165869,,,0,""
10,1,29,2,19,icing,cake,68993.3588621457,0,68999.879069328,,,0,""
10,1,30,2,39,retreat,drunk,68999.9919147726,0,69006.3669168856,,,0,""
10,1,31,2,22,action,chair,69006.4750198622,0,69011.9428072417,,,0,""
10,1,32,2,103,astronomy,star,69012.0581511528,0,69017.1187135357,,,0,""
10,1,41,3,58,soccer,jelly,69180.3019280785,0,69184.8592448998,,,0,""
10,1,42,3,21,junk,card,69184.9684315413,0,69188.4511952311,,,0,""
10,1,43,3,60,giggle,laugh,69188.5683028901,0,69192.6191041381,,,0,""
10,1,44,3,81,jigsaw,puzzle,69192.7348123901,0,69198.0989675903,,,0,""
10,1,45,3,118,aunt,uncle,69198.2179920382,0,69200.5869383054,,,0,""
10,1,46,3,72,niece,nephew,69200.7011783272,0,69202.7149227609,,,0,""
10,1,47,3,32,lieutenant,defense,69202.8344425555,0,,,,0,""
10,1,48,3,100,campus,spider,69212.8507364696,1,69214.6586512688,69215.2985995064,69215.9545533851,69216.2745433514,spider
10,1,57,4,79,tapioca,pudding,69379.4612724098,0,69384.5351644756,,,0,""
10,1,58,4,110,bluff,tear,69384.6444154125,0,69392.1029940546,,,0,""
10,1,59,4,20,unit,candle,69392.2108024192,1,69393.7268959005,69394.3429223094,69395.4068992934,69395.926863783,candle
10,1,60,4,77,pity,pool,69396.0440315114,1,69397.8228557923,69398.3428480527,69398.8627923179,69399.0388166379,pool
10,1,61,4,86,regulations,rules,69399.1605680578,1,69403.1267740109,69403.8467299278,69404.246717612,69404.4946532151,rules
10,1,62,4,41,omelet,eggs,69404.610359656,1,69406.0946791144,69407.1986698993,69407.582642585,69408.6626523772,eggs
10,1,63,4,29,chef,cracker,69408.7768833433,0,69413.9585427212,,,0,""
10,1,64,4,63,win,lose,69414.076706878,1,69416.390488259,69416.5584581409,69418.0624009911,69418.3503920513,victory
10,1,73,5,97,post,soup,69581.537189933,0,69589.3309398122,,,0,""
10,1,74,5,11,chalk,board,69589.4535780867,1,69592.7068327039,69592.8509070185,69593.5547960174,69593.7467852279,board
10,1,75,5,5,medal,bank,69593.8533906941,0,69598.0587672421,,,0,""
10,1,76,5,62,dressing,lightning,69598.1698730874,0,69603.5866536546,,,0,""
10,1,77,5,36,upstairs,downstairs,69603.7030163317,0,69608.9065437064,,,0,""
10,1,78,5,108,trousers,sweat,69609.0195394756,0,69613.0744489911,,,0,""
10,1,79,5,61,mower,lawn,69613.1860009804,1,69617.2343743963,69641.7778601511,69642.049827157,69642.4818188788,lawn
10,1,80,5,59,acre,land,69642.6016269464,1,69645.3937763823,69645.5857882319,69646.1537050475,69646.4257309154,yard
10,1,89,6,27,xerox,copy,69809.6121511746,1,69813.8543173937,69814.0222694661,69814.6782387396,69814.9502344218,copy
10,1,90,6,102,postage,stamp,69815.0619270763,1,69816.9982600989,69817.1742518184,69817.7182350327,69817.8381937267,letter
10,1,91,6,80,shove,push,69817.9451466298,0,69819.678204026,,,0,""
10,1,92,6,45,coast,flag,69819.7951175912,0,69824.718095575,,,0,""
10,1,93,6,90,appeal,shirt,69824.8282191792,0,69829.3099948926,,,0,""
10,1,94,6,119,east,west,69829.4280527959,1,69833.0859177284,69833.3738894698,69834.6458522497,69834.9498737032,coast
10,1,95,6,115,shoe,thread,69835.0611884333,0,69839.4698016682,,,0,""
10,1,96,6,28,denial,corn,69839.5943820876,0,69841.5177633517,,,0,""
11,1,1,1,30,chase,cute,1278177.9554687,1,1278181.0338342,1278181.94577165,1278182.57774021,1278182.84174917,cute
11,1,2,1,103,astronomy,star,1278182.95525167,1,1278191.34551223,1278191.72946677,1278192.40946149,1278192.78543018,star
11,1,3,1,54,saddle,horse,1278192.90484267,1,1278195.25739746,1278196.06537039,1278196.76934167,1278197.85730793,horse
11,1,4,1,77,customer,pool,1278197.97129732,1,1278202.42518295,1278202.9771569,1278203.61713606,1278204.15312505,pool
11,1,5,1,10,concert,blood,1278204.27103431,1,1278205.64108576,1278206.12105609,1278206.83304008,1278207.08103358,blood
11,1,6,1,25,wardrobe,clothes,1278207.20423797,1,1278210.12094954,1278210.48894113,1278211.48089884,1278212.52888847,clothes
11,1,7,1,35,campus,disappear,1278212.6373316,1,1278214.31286613,1278214.70481949,1278217.02474236,1278217.41673043,disappear
11,1,8,1,73,tangerine,orange,1278217.53713271,1,1278219.20869635,1278219.61667785,1278222.04058395,1278222.32058816,orange
11,1,17,2,44,style,finish,1278385.51338707,1,1278387.85976472,1278388.65972131,1278391.0356414,1278391.87560873,finish
11,1,18,2,14,text,book,1278391.9964511,1,1278394.10756533,1278395.01951395,1278396.00347524,1278397.05147243,book
11,1,19,2,79,novel,pudding,1278397.16292806,1,1278400.39540596,1278401.38734707,1278402.44330444,1278402.72329899,pudding
11,1,20,2,50,impulse,ghost,1278402.84599716,1,1278409.77911751,1278410.41108426,1278411.03505127,1278411.29104753,ghost
11,1,21,2,100,cobweb,spider,1278411.41231341,1,1278413.08300529,1278413.52298874,1278414.49894608,1278414.81893626,spider
11,1,22,2,49,toad,frog,1278414.92882678,1,1278416.38688584,1278417.15489059,1278417.96285205,1278418.16284716,frog
11,1,23,2,18,garbage,butter,1278418.27870049,1,1278420.75478446,1278421.13875016,1278422.07474084,1278422.48272354,butter
11,1,24,2,28,cob,corn,1278422.59515084,1,1278424.05867889,1278425.17864106,1278425.81862173,1278426.29857969,corn
11,1,33,3,70,cinema,movie,1278589.48807028,1,1278594.00572255,1278594.51767551,1278595.32565176,1278595.66161725,movie
11,1,34,3,111,gums,teeth,1278595.77116939,1,1278597.56559874,1278598.02957806,1278599.06954201,1278599.99753416,teeth
11,1,35,3,57,link,jeans,1278600.10423589,1,1278602.10146306,1278604.41338831,1278605.27736207,1278606.17333417,jeans
11,1,36,3,91,contact,short,1278606.28739902,1,1278608.86928126,1278609.9492315,1278610.73320251,1278611.02917146,short
11,1,37,3,118,hair,uncle,1278611.13718203,1,1278614.92509224,1278615.46106583,1278616.6050284,1278617.02099515,uncle
11,1,38,3,29,saltine,cracker,1278617.13695051,1,1278619.28496789,1278619.60492819,1278621.13290989,1278621.46888445,cracker
11,1,39,3,113,fraud,test,1278621.58675024,1,1278622.91685585,1278623.3568387,1278623.98081205,1278624.38079865,test
11,1,40,3,60,giggle,laugh,1278624.50329579,1,1278626.04476041,1278626.40475257,1278627.06871885,1278627.35671131,laugh
11,1,49,4,56,comedy,husband,1278790.54626711,1,1278792.22392246,1278792.70387137,1278793.77583303,1278793.99979776,husband
11,1,50,4,99,meatballs,spaghetti,1278794.1127859,1,1278795.91179316,1278796.44776433,1278798.67968985,1278799.29565382,spaghetti
11,1,51,4,23,thief,cheap,1278799.41256304,1,1278801.11164278,1278801.5516217,1278802.29558228,1278802.71957441,cheap
11,1,52,4,31,mate,deer,1278802.82907644,1,1278804.32752536,1278804.80751803,1278807.27144332,1278808.28742045,deer
11,1,53,4,40,action,duck,1278808.39551312,1,1278811.68732464,1278812.43929582,1278812.94325147,1278813.20724594,duck
11,1,54,4,21,credit,card,1278813.3286383,1,1278814.79123211,1278815.49520731,1278816.14318077,1278816.47916076,card
11,1,55,4,71,hammer,nail,1278816.59517197,0,,,,0,""
11,1,56,4,12,row,boat,1278826.71140383,1,1278829.27878803,1278829.71878748,1278830.35076087,1278830.93471564,boat
11,1,65,5,2,halo,angel,1278994.12098334,1,1278995.95395189,1278996.48989921,1278997.23386976,1278997.58585042,angel
11,1,66,5,36,upstairs,downstairs,1278997.70416115,1,1278999.57781778,1278999.92978758,1279002.12972684,1279002.43372088,downstairs
11,1,67,5,105,armor,steal,1279002.55397555,1,1279004.73766331,1279005.28964874,1279006.39361899,1279006.80156427,steal
11,1,68,5,48,powder,forward,1279006.9204449,1,1279008.41756264,1279008.85751319,1279010.07347124,1279010.39346082,forward
11,1,69,5,76,airport,plane,1279010.50363266,1,1279013.71338973,1279014.09734969,1279014.94534543,1279015.31331921,plane
11,1,70,5,39,shoe,drunk,1279015.42030378,1,1279016.85729012,1279017.27328886,1279018.27323392,1279018.72924641,drunk
11,1,71,5,32,illness,defense,1279018.83658747,1,1279020.3372194,1279020.6731855,1279022.12913672,1279022.82515113,defense
11,1,72,5,98,north,south,1279022.93642897,1,1279024.92909573,1279025.28105314,1279025.97702711,1279026.35301602,south
11,1,81,6,89,print,sheriff,1279189.54602834,1,1279191.81221096,1279192.1881401,1279195.30806333,1279195.56403664,sheriff
11,1,82,6,108,sailor,sweat,1279195.67909882,1,1279196.95601989,1279197.31601265,1279200.45988316,1279200.97989864,sweat
11,1,83,6,120,gold,window,1279201.09555064,1,1279202.29986951,1279202.73186288,1279203.44385019,1279203.88382428,window
11,1,84,6,33,trousers,dirt,1279203.99544653,1,1279205.21975809,1279205.48377913,1279206.04372746,1279206.3717379,dirt
11,1,85,6,13,marrow,bone,1279206.49531055,1,1279208.07570496,1279208.6116707,1279209.18764023,1279209.50762317,bone
11,1,86,6,72,niece,nephew,1279209.62853618,1,1279210.78763945,1279211.31558825,1279212.70755247,1279213.28353468,nephew
11,1,87,6,107,pupil,student,1279213.39501959,1,1279220.6833456,1279221.40329854,1279222.71522953,1279223.33123605,student
11,1,88,6,8,buckle,belt,1279223.44459094,1,1279224.66721695,1279225.31514845,1279225.89915514,1279226.29115619,belt
12,1,9,1,30,adorable,cute,1293593.9832945,0,1293596.09392818,,,0,""
12,1,10,1,32,sweetheart,defense,1293596.21654063,1,1293600.20582602,1293618.26128141,1293619.60521646,1293619.78921059,husband
12,1,11,1,87,leather,scare,1293619.89882793,1,1293621.56514777,1293622.29312881,1293622.86116653,1293623.14911552,scare
12,1,12,1,68,debate,mistake,1293623.26541319,1,1293624.72507509,1293630.24491882,1293631.16489373,1293631.31687867,mistake
12,1,13,1,71,hammer,nail,1293631.43174374,0,1293632.94084116,,,0,""
12,1,14,1,118,aunt,uncle,1293633.04801711,0,1293634.77278884,,,0,""
12,1,15,1,56,campus,husband,1293634.8815634,1,1293636.4367361,1293637.09263624,1293637.98068377,1293638.21262468,husband
12,1,16,1,7,keg,beer,1293638.33140992,0,1293639.90863999,,,0,""
12,1,25,2,74,salt,pepper,1293803.09113482,0,1293804.59181596,,,0,""
12,1,26,2,14,text,book,1293804.70774234,0,1293806.08774802,,,0,""
12,1,27,2,4,question,answer,1293806.20768242,0,1293809.27168058,,,0,""
12,1,28,2,94,odor,smell,1293809.39086306,1,1293816.03145589,1293816.8954363,1293817.43142287,1293817.68739135,smell
12,1,29,2,77,denial,pool,1293817.80718449,0,1293821.60730861,,,0,""
12,1,30,2,50,comedy,ghost,1293821.72370166,1,1293822.68726548,1293826.52717123,1293827.42313094,1293827.68712451,ghost
12,1,31,2,64,link,loud,1293827.80674649,1,1293829.519074,1293833.97496092,1293834.48689728,1293834.95091071,hook
12,1,32,2,116,lieutenant,tired,1293835.0731226,1,1293844.5506461,1293844.83060533,1293845.20659001,1293845.45460676,sad
12,1,41,3,88,class,scratch,1294008.64912896,0,1294013.52172488,,,0,""
12,1,42,3,39,intoxicated,drunk,1294013.63222785,0,1294019.26551793,,,0,""
12,1,43,3,21,buzz,card,1294019.38200426,1,1294021.40942346,1294027.26528973,1294029.68922059,1294031.84916119,lightening
12,1,44,3,101,rectangle,square,1294031.96478603,0,1294037.88894554,,,0,""
12,1,45,3,103,mate,star,1294037.99788249,1,1294039.03293981,1294041.88884774,1294042.29687753,1294042.79286605,star
12,1,46,3,40,theft,duck,1294042.91434866,1,1294046.16870192,1294046.75270921,1294049.33662173,1294049.58461161,stealing
12,1,47,3,104,sirloin,steak,1294049.69737155,0,1294051.13658889,,,0,""
12,1,48,3,51,bride,groom,1294051.24733546,0,1294054.63247205,,,0,""
12,1,57,4,80,shove,push,1294217.82355976,0,1294219.72365729,,,0,""
12,1,58,4,96,lather,soap,1294219.84014542,0,1294221.1795913,,,0,""
12,1,59,4,105,rob,steal,1294221.29012325,0,1294223.23551969,,,0,""
12,1,60,4,99,gang,spaghetti,1294223.35666604,1,1294224.86748795,1294225.40347724,1294227.66734222,1294228.09135669,spaghetti
12,1,61,4,111,boom,teeth,1294228.20646595,1,1294229.66738961,1294234.11523363,1294234.9791757,1294235.60314544,shoes
12,1,62,4,6,grizzly,bear,1294235.72283624,0,1294237.41911961,,,0,""
12,1,63,4,97,customer,soup,1294237.53939178,1,1294238.76308122,1294239.17107026,1294239.49104596,1294239.81903829,soup
12,1,64,4,108,appeal,sweat,1294239.93930895,1,1294241.1630011,1294248.426803,1294250.37873095,1294250.61872442,star
12,1,73,5,93,chase,small,1294413.81527145,1,1294416.46190347,1294421.50171589,1294422.22970357,1294422.38165622,dream
12,1,74,5,59,acre,land,1294422.49823008,0,1294423.63764945,,,0,""
12,1,75,5,54,warehouse,horse,1294423.74820586,1,1294426.4775869,1294428.06949673,1294428.48547675,1294428.821483,horse
12,1,76,5,84,print,rain,1294428.93125881,0,1294430.42946535,,,0,""
12,1,77,5,44,done,finish,1294430.54791916,0,1294431.41347132,,,0,""
12,1,78,5,57,denim,jeans,1294431.5312043,0,1294432.22935493,,,0,""
12,1,79,5,35,vanish,disappear,1294432.34782806,0,1294434.04534238,,,0,""
12,1,80,5,22,picture,chair,1294434.16408838,1,1294435.17334171,1294445.45303712,1294446.04496597,1294446.62895817,frame
12,1,89,6,67,wall,mirror,1294609.82363582,1,1294612.37614799,1294615.08004622,1294615.52802336,1294615.87201787,bird
12,1,90,6,113,quiz,test,1294615.9900509,0,1294617.74397537,,,0,""
12,1,91,6,12,row,boat,1294617.85664838,0,1294618.64794207,,,0,""
12,1,92,6,43,stumble,fall,1294618.75657083,0,1294619.5679203,,,0,""
12,1,93,6,29,saltine,cracker,1294619.68989131,0,1294620.59186546,,,0,""
12,1,94,6,58,salesman,jelly,1294620.70651319,0,1294622.21583942,,,0,""
12,1,95,6,41,moonlight,eggs,1294622.3227932,1,1294623.53576923,1294625.27975698,1294625.71974254,1294626.52770883,egg
12,1,96,6,75,type,pizza,1294626.63958101,1,1294628.5116828,1294635.67944203,1294637.09540847,1294637.38339459,animal
14,1,9,1,118,center,uncle,1463253.37656424,1,1463257.18423532,1463257.584122,1463258.05615509,1463258.32814628,uncle
14,1,10,1,116,class,tired,1463258.44306266,0,1463267.45589507,,,0,""
14,1,11,1,74,salt,pepper,1463267.57601843,1,1463271.4957908,1463271.98374215,1463276.33564674,1463276.9275774,furniture
14,1,12,1,119,east,west,1463277.04228218,1,1463282.99146086,1463283.21540475,1463284.02339458,1463284.27939204,soccer
14,1,13,1,87,fright,scare,1463284.39196453,1,1463289.67924099,1463290.11923018,1463290.6471986,1463291.13518497,burst
14,1,14,1,39,intoxicated,drunk,1463291.25838361,1,1463294.75911425,1463294.99906606,1463295.767002,1463296.07903471,wealth
14,1,15,1,18,novel,butter,1463296.19148072,0,1463304.15081828,,,0,""
14,1,16,1,33,pirate,dirt,1463304.27446971,0,1463308.11073269,,,0,""
14,1,25,2,1,flight,airplane,1463471.30074217,1,1463476.80976654,1463477.58572334,1463478.03370802,1463478.32967818,wall
14,1,26,2,15,soda,bottom,1463478.45043695,1,1463486.28148661,1463486.73744144,1463487.641419,1463487.90541378,bottom
14,1,27,2,68,error,mistake,1463488.0167055,1,1463492.5453048,1463493.90527764,1463495.02521718,1463495.68120455,retreat
14,1,28,2,72,mate,nephew,1463495.79972417,1,1463502.21701695,1463502.47297879,1463503.50496112,1463503.80094879,nephew
14,1,29,2,14,wreck,book,1463503.91603028,0,1463510.14478271,,,0,""
14,1,30,2,120,pane,window,1463510.26577179,1,1463514.13667069,1463514.54464947,1463514.8086204,1463514.99261333,shoe
14,1,31,2,59,acre,land,1463515.1155536,0,1463521.19247533,,,0,""
14,1,32,2,114,territory,thin,1463521.31530481,1,1463526.20831783,1463526.55230268,1463526.8322942,1463527.12026704,thin
14,1,41,3,102,fountain,stamp,1463690.30814544,1,1463694.24340623,1463694.45937364,1463695.10733623,1463695.38731356,stamp
14,1,42,3,47,click,forever,1463695.5078882,0,1463701.89116899,,,0,""
14,1,43,3,51,bride,groom,1463702.00767464,0,1463708.50693223,,,0,""
14,1,44,3,67,reflection,mirror,1463708.62404761,1,1463716.30673487,1463716.49068132,1463717.94667087,1463718.32266219,substance
14,1,45,3,30,garbage,cute,1463718.44029798,1,1463720.16262016,1463720.35461705,1463720.89858766,1463721.10658069,cute
14,1,46,3,90,coast,shirt,1463721.22350892,0,1463727.91442985,,,0,""
14,1,47,3,27,xerox,copy,1463728.02322434,1,1463732.3542663,1463732.68225893,1463735.22616614,1463736.28214284,strawberry
14,1,48,3,21,credit,card,1463736.38955604,0,1463740.38605393,,,0,""
14,1,57,4,34,filthy,dirty,1463903.58245124,1,1463908.78110823,1463909.35707233,1463909.99704394,1463910.23701357,bluff
14,1,58,4,96,contact,soap,1463910.34883172,0,1463920.20474448,,,0,""
14,1,59,4,19,icing,cake,1463920.31508687,1,1463923.06865697,1463923.37264196,1463923.78061893,1463923.94860454,post
14,1,60,4,115,permission,thread,1463924.06491791,0,1463927.71651603,,,0,""
14,1,61,4,80,shove,push,1463927.83143724,0,1463930.39646155,,,0,""
14,1,62,4,112,tragedy,television,1463930.51466874,1,1463932.18040419,1463932.45237877,1463935.70824976,1463935.88428461,television
14,1,63,4,65,navy,math,1463935.99775783,0,1463943.33207309,,,0,""
14,1,64,4,40,quack,duck,1463943.44743652,0,1463946.54000666,,,0,""
14,1,73,5,42,warehouse,elephant,1464109.72373154,1,1464111.68716164,1464112.04711064,1464112.86309567,1464113.08708123,elephant
14,1,74,5,111,impulse,teeth,1464113.20691602,0,1464115.99104007,,,0,""
14,1,75,5,29,saltine,cracker,1464116.10681281,0,1464118.71092418,,,0,""
14,1,76,5,98,massage,south,1464118.82333608,1,1464123.23082828,1464123.51079535,1464123.9427679,1464124.21476271,south
14,1,77,5,57,denim,jeans,1464124.32309747,1,1464127.63867787,1464127.90264276,1464128.64663232,1464128.88666684,action
14,1,78,5,93,curtain,small,1464129.00626286,0,1464131.73453791,,,0,""
14,1,79,5,117,caboose,train,1464131.85611772,0,,,,0,""
14,1,80,5,20,wick,candle,1464141.8723647,0,1464146.80612951,,,0,""
14,1,89,6,92,ill,sick,1464309.99858672,0,1464312.84927771,,,0,""
14,1,90,6,26,chill,cold,1464312.96510901,0,1464315.42517268,,,0,""
14,1,91,6,28,cob,corn,1464315.5483342,0,1464318.60909407,,,0,""
14,1,92,6,3,danger,animal,1464318.73153477,0,,,,0,""
14,1,93,6,31,doe,deer,1464328.74776002,1,1464330.00074105,1464330.25673308,1464331.80865029,1464332.08866928,animal
14,1,94,6,70,appeal,movie,1464332.19762103,0,1464337.24054163,,,0,""
14,1,95,6,106,chef,street,1464337.36407534,0,1464339.0564823,,,0,""
14,1,96,6,76,chase,plane,1464339.16400567,0,1464339.98442555,,,0,""
16,1,9,1,91,tall,short,1467662.81179249,0,1467666.70285357,,,0,""
16,1,10,1,94,boom,smell,1467666.81139284,0,1467669.26272533,,,0,""
16,1,11,1,33,soil,dirt,1467669.3778002,1,1467673.14251666,1467673.81446565,1467674.27844763,1467674.52639514,dirt
16,1,12,1,45,front,flag,1467674.64396205,0,1467676.43034267,,,0,""
16,1,13,1,26,impulse,cold,1467676.54377246,0,1467678.25424676,,,0,""
16,1,14,1,17,comb,brush,1467678.37692393,0,1467679.06218346,,,0,""
16,1,15,1,67,clue,mirror,1467679.17683573,0,1467679.73414452,,,0,""
16,1,16,1,18,margarine,butter,1467679.84314381,0,1467680.39809939,,,0,""
16,1,25,2,65,arithmetic,math,1467843.57722614,0,1467848.0212811,,,0,""
16,1,26,2,118,revolution,uncle,1467848.14340017,0,1467848.81319698,,,0,""
16,1,27,2,120,dressing,window,1467848.92670436,0,1467849.49317389,,,0,""
16,1,28,2,78,rich,poor,1467849.6099578,0,1467850.2371417,,,0,""
16,1,29,2,21,picture,card,1467850.35989012,0,1467852.44504502,,,0,""
16,1,30,2,105,detail,steal,1467852.55965926,0,1467853.19698521,,,0,""
16,1,31,2,93,tiny,small,1467853.30957497,0,1467854.4609445,,,0,""
16,1,32,2,100,cobweb,spider,1467854.57612229,0,1467855.18090312,,,0,""
16,1,41,3,48,gold,forward,1468018.3593978,1,1468024.39600005,1468024.89989553,1468027.58775909,1468027.73975283,armor
16,1,42,3,82,king,queen,1468027.85845016,0,1468029.29968708,,,0,""
16,1,43,3,15,top,bottom,1468029.40825654,0,1468030.63560844,,,0,""
16,1,44,3,11,chalk,board,1468030.75812202,0,1468031.29954913,,,0,""
16,1,45,3,101,rectangle,square,1468031.40804887,0,1468032.45150665,,,0,""
16,1,46,3,60,memory,laugh,1468032.57460008,1,1468035.18740309,1468037.21127645,1468038.12321114,1468038.49917219,armor
16,1,47,3,116,judgment,tired,1468038.60727469,0,1468041.40304847,,,0,""
16,1,48,3,19,lieutenant,cake,1468041.52366705,1,1468045.18686701,1468046.10680215,1468046.27477113,1468046.49876016,cop
16,1,57,4,28,curtain,corn,1468209.6729487,0,1468211.97804125,,,0,""
16,1,58,4,8,buckle,belt,1468212.08935752,1,1468215.38585588,1468216.7857745,1468217.68971116,1468217.91366276,horse
16,1,59,4,52,migraine,headache,1468218.02207255,0,1468219.54562339,,,0,""
16,1,60,4,112,goose,television,1468219.65524509,0,1468220.66555255,,,0,""
16,1,61,4,108,perspire,sweat,1468220.78845822,0,1468221.2815331,,,0,""
16,1,62,4,74,salt,pepper,1468221.38848165,0,1468221.76150874,,,0,""
16,1,63,4,102,territory,stamp,1468221.87168946,0,1468222.51346765,,,0,""
16,1,64,4,4,audience,answer,1468222.62132626,0,1468223.22543277,,,0,""
16,1,73,5,66,plus,minus,1468386.40469323,0,1468390.12065148,,,0,""
16,1,74,5,2,fountain,angel,1468390.23763371,1,1468395.1123676,1468396.84830418,1468397.35219604,1468397.6322024,angel
16,1,75,5,35,vanish,disappear,1468397.7535261,0,1468398.68016616,,,0,""
16,1,76,5,89,deputy,sheriff,1468398.80341594,0,1468399.28813902,,,0,""
16,1,77,5,83,employment,rabbit,1468399.40335213,0,1468400.08807255,,,0,""
16,1,78,5,81,jigsaw,puzzle,1468400.20327449,0,1468400.75204192,,,0,""
16,1,79,5,55,debate,hungry,1468400.8698657,0,1468401.44001535,,,0,""
16,1,80,5,47,furniture,forever,1468401.55312941,0,1468402.19196399,,,0,""
16,1,89,6,69,chimpanzee,monkey,1468565.36945262,1,1468569.4231071,1468569.94301072,1468570.65506579,1468570.89505119,tail
16,1,90,6,110,month,tear,1468571.00223186,0,1468572.07100765,,,0,""
16,1,91,6,59,wealth,land,1468572.18544954,0,1468572.82295961,,,0,""
16,1,92,6,75,pepperoni,pizza,1468572.93536826,0,1468573.43891662,,,0,""
16,1,93,6,44,done,finish,1468573.55198209,0,1468573.9268921,,,0,""
16,1,94,6,37,sofa,draw,1468574.03525359,0,1468575.67882113,,,0,""
16,1,95,6,29,novel,cracker,1468575.80175246,0,1468576.67876016,,,0,""
16,1,96,6,113,quiz,test,1468576.80163595,0,1468577.30267385,,,0,""
15,1,1,1,17,appeal,brush,161496.781035452,1,161502.577083904,161503.713061765,161504.473053301,161505.208987576,brush
15,1,2,1,14,text,book,161505.330468597,1,161512.152691168,161517.696364758,161520.704209477,161521.088240949,message
15,1,3,1,102,post,stamp,161521.196081775,1,161523.504120372,161523.872063663,161525.231959091,161525.975957831,stamp
15,1,4,1,28,cob,corn,161526.095741261,1,161527.599908721,161527.983888275,161528.551838268,161529.71977516,corn
15,1,5,1,74,salt,pepper,161529.828830319,1,161531.175706754,161531.87968079,161533.607574445,161535.903477255,pepper
15,1,6,1,16,respiration,breathe,161536.011731009,1,161537.423387884,161538.00738893,161539.215284119,161540.103249723,breathe
15,1,7,1,22,tragedy,chair,161540.211492006,1,161541.471199956,161542.143160025,161542.903100248,161543.35109053,chair
15,1,8,1,53,theft,high,161543.461253773,1,161544.91103854,161545.455006733,161545.878975372,161546.486921392,high
15,1,17,2,70,cell,movie,161709.666886613,0,161714.366621198,,,0,""
15,1,18,2,51,bride,groom,161714.482925532,1,161715.822527437,161716.238504357,161717.022401627,161718.030385801,groom
15,1,19,2,42,mate,elephant,161718.149648845,1,161719.534342873,161719.798318346,161721.182219722,161721.766221673,elephant
15,1,20,2,5,teller,bank,161721.882736394,1,161725.598021569,161726.749962646,161727.269913723,161727.941899751,bank
15,1,21,2,54,pirate,horse,161728.048982637,1,161729.229860344,161729.509839179,161730.285794836,161730.829765141,horse
15,1,22,2,3,zoo,animal,161730.948759542,1,161735.981511828,161736.773413194,161738.229333016,161740.85325825,elephant
15,1,23,2,113,medal,test,161740.964801238,1,161745.261039702,161746.069017175,161747.236946521,161748.500879735,running
15,1,24,2,31,doe,deer,161748.614288142,1,161750.204790987,161752.052714381,161752.580670156,161752.948665667,deer
15,1,33,3,39,intoxicated,drunk,161916.136505491,1,161918.004458291,161918.748383681,161919.588319581,161920.196327178,drunk
15,1,34,3,98,north,south,161920.319576423,1,161923.996180721,161924.556103074,161925.188026969,161926.2200186,south
15,1,35,3,41,omelet,eggs,161926.335823979,1,161928.171943015,161928.491910331,161929.499836248,161929.99584235,eggs
15,1,36,3,84,umbrella,rain,161930.118905657,1,161931.93973822,161932.859704811,161933.54765496,161933.891601963,rain
15,1,37,3,40,salesman,duck,161934.001979517,0,161937.371486078,,,0,""
15,1,38,3,21,boom,card,161937.485100043,0,161941.579260527,,,0,""
15,1,39,3,108,junk,sweat,161941.701472624,0,161944.787110439,,,0,""
15,1,40,3,69,wall,monkey,161944.90125958,0,161947.882963384,,,0,""
15,1,49,4,93,goose,small,162111.073555153,0,162114.786651631,,,0,""
15,1,50,4,87,fright,scare,162114.906585985,1,162116.890510784,162118.506434337,162119.68237955,162120.106359056,scare
15,1,51,4,27,xerox,copy,162120.22293958,1,162124.962135319,162126.530056032,162129.105885457,162129.529891827,printer
15,1,52,4,86,regulations,rules,162129.63895574,1,162131.225795663,162131.793762559,162132.569744779,162132.889725074,rules
15,1,53,4,29,contact,cracker,162133.005418468,1,162136.137562864,162136.633563231,162137.465469378,162137.761480249,flight
15,1,54,4,80,shove,push,162137.871746723,1,162139.705388796,162139.945363151,162140.465320265,162140.817300944,push
15,1,55,4,63,link,lose,162140.938229283,1,162142.297224903,162142.769229887,162143.617217574,162143.993175525,loose
15,1,56,4,23,fountain,cheap,162144.10467867,1,162145.465080296,162145.993085575,162147.816931483,162148.288951861,cheap
15,1,65,5,10,plasma,blood,162311.476890691,0,162317.232570635,,,0,""
15,1,66,5,82,trousers,queen,162317.343181215,1,162319.072453107,162319.816424379,162320.592374603,162321.23231829,queen
15,1,67,5,94,wealth,smell,162321.342903213,1,162322.808254267,162323.136240771,162325.272130191,162325.560123383,smell
15,1,68,5,103,strawberry,star,162325.675950496,1,162326.744073296,162327.064057515,162327.672010176,162328.0639733,star
15,1,69,5,30,print,cute,162328.175782819,1,162333.143763419,162333.551710586,162334.111666444,162334.527672944,cute
15,1,70,5,114,thick,thin,162334.64201557,1,162336.295589492,162336.63956668,162337.119539839,162337.631528475,thin
15,1,71,5,25,wardrobe,clothes,162337.741818494,1,162339.527431164,162340.047415746,162341.543242249,162342.063284483,clothes
15,1,72,5,50,ghoul,ghost,162342.174851921,1,162343.727232609,162344.095207896,162344.823159204,162345.175141997,ghost
15,1,81,6,105,trash,steal,162508.363835144,1,162514.246716123,162515.502659127,162516.782575177,162518.438500795,fraud
15,1,82,6,72,fraud,nephew,162518.546463567,0,162523.086284071,,,0,""
15,1,83,6,90,blouse,shirt,162523.1961512,1,162525.182173237,162525.550148222,162526.270091511,162526.630034933,shirt
15,1,84,6,96,gang,soap,162526.745889815,0,162528.845997303,,,0,""
15,1,85,6,89,deputy,sheriff,162528.962440789,1,162530.125919692,162530.661922426,162533.341715443,162535.221660349,sheriff
15,1,86,6,8,buckle,belt,162535.328654795,1,162537.917539132,162538.469509911,162538.957463018,162539.893439008,belt
15,1,87,6,118,aunt,uncle,162540.011715011,1,162541.157374034,162541.421369429,162542.517310815,162542.80526688,uncle
15,1,88,6,52,hair,headache,162542.92817534,1,162543.933221026,162544.20520482,162546.125100779,162546.469092154,headache
17,1,1,1,21,credit,card,1467214.45819459,0,1467216.42814806,,,0,""
17,1,2,1,85,curtain,rock,1467216.54145073,0,1467217.85208706,,,0,""
17,1,3,1,50,ghoul,ghost,1467217.97471974,0,1467219.35604633,,,0,""
17,1,4,1,13,barrel,bone,1467219.47466344,1,1467221.53198187,1467221.85195847,1467222.29194343,1467222.49990658,bone
17,1,5,1,100,cobweb,spider,1467222.60784893,0,1467223.92390716,,,0,""
17,1,6,1,74,customer,pepper,1467224.0411282,0,1467225.4918504,,,0,""
17,1,7,1,73,plenty,orange,1467225.60773543,0,1467226.85980245,,,0,""
17,1,8,1,109,wag,tail,1467226.9743557,1,1467229.52372858,1467229.84373386,1467230.12368765,1467230.28370946,dog
17,1,17,2,72,state,nephew,1467490.6298583,0,1467492.22007081,,,0,""
17,1,18,2,56,wife,husband,1467492.32979289,1,1467494.28397147,1467494.76396927,1467495.69990501,1467496.02791937,husband
17,1,19,2,51,unit,groom,1467496.14629711,0,1467497.18790073,,,0,""
17,1,20,2,57,denim,jeans,1467497.29592458,1,1467498.83584098,1467499.14781574,1467499.7478225,1467499.92380121,jeans
17,1,21,2,20,claim,candle,1467500.04612901,0,1467501.29975179,,,0,""
17,1,22,2,106,avenue,street,1467501.41274596,1,1467502.8597291,1467502.98772511,1467504.42766751,1467504.82767523,street
17,1,23,2,67,appeal,mirror,1467504.94591714,0,1467505.89964897,,,0,""
17,1,24,2,49,toad,frog,1467506.01255078,1,1467507.01160175,1467507.26757416,1467507.69958082,1467507.90757475,frog
17,1,33,3,86,debate,rules,1467751.10214343,1,1467752.89242531,1467753.14038893,1467753.94831959,1467754.16437333,rules
17,1,34,3,68,error,mistake,1467754.28537237,0,1467756.31631934,,,0,""
17,1,35,3,71,hammer,nail,1467756.43527543,1,1467757.89222458,1467758.26821349,1467758.67619982,1467758.91618272,nail
17,1,36,3,101,policeman,square,1467759.03516598,1,1467760.18019561,1467760.57216497,1467761.94810317,1467762.11609482,square
17,1,37,3,53,gold,high,1467762.23500292,1,1467764.16408084,1467764.50007109,1467764.9560549,1467765.1880423,high
17,1,38,3,38,fountain,drug,1467765.30156774,0,1467767.26797291,,,0,""
17,1,39,3,54,saddle,horse,1467767.38481844,1,1467768.49194941,1467768.81191997,1467769.34787484,1467769.50792593,horse
17,1,40,3,69,chimpanzee,monkey,1467769.61802925,1,1467770.72389273,1467771.17986327,1467771.89981892,1467772.09183422,monkey
17,1,49,4,66,plus,minus,1468017.87419062,1,1468019.39660402,1468019.62059471,1468020.34055277,1468020.54855094,minus
17,1,50,4,25,wardrobe,clothes,1468020.65737741,0,1468022.1405317,,,0,""
17,1,51,4,58,ashes,jelly,1468022.25732773,1,1468023.50047617,1468023.72444814,1468024.29242187,1468024.5404359,jelly
17,1,52,4,27,moonlight,copy,1468024.65721321,1,1468025.75641477,1468025.94839385,1468026.43634882,1468026.66836339,copy
17,1,53,4,41,shoe,eggs,1468026.79047144,0,1468028.73231808,,,0,""
17,1,54,4,103,astronomy,star,1468028.85705226,1,1468029.91627207,1468030.98821472,1468031.37223204,1468031.54822373,star
17,1,55,4,76,airport,plane,1468031.65692494,0,1468032.8922119,,,0,""
17,1,56,4,48,memory,forward,1468033.00687382,0,1468034.12418873,,,0,""
17,1,65,5,63,win,lose,1468285.17949319,1,1468286.63677528,1468286.84474296,1468287.31672503,1468287.42072305,lose
17,1,66,5,112,action,television,1468287.54602593,1,1468288.63667356,1468289.10865533,1468291.22058607,1468291.44457796,television
17,1,67,5,117,cape,train,1468291.56255756,1,1468292.89256054,1468293.09256199,1468293.92451026,1468294.1565031,train
17,1,68,5,80,pity,push,1468294.27911162,1,1468295.81249591,1468296.05249179,1468296.58045508,1468296.81245636,push
17,1,69,5,78,rich,poor,1468296.92900095,1,1468298.17243072,1468298.37239323,1468298.83637195,1468299.13238346,poor
17,1,70,5,31,wall,deer,1468299.24557263,0,1468300.19635354,,,0,""
17,1,71,5,87,fright,scare,1468300.31219179,1,1468301.54831187,1468301.68430761,1468302.28428509,1468302.38827859,scare
17,1,72,5,39,intoxicated,drunk,1468302.49542405,1,1468303.85225489,1468304.06023645,1468304.71621447,1468305.01220607,drunk
17,1,81,6,8,goose,belt,1468558.91787703,0,1468560.35675961,,,0,""
17,1,82,6,9,denial,bird,1468560.46781196,1,1468562.6206581,1468562.86065488,1468563.34861861,1468563.51660815,bird
17,1,83,6,19,icing,cake,1468563.63433389,1,1468564.78860719,1468565.06058238,1468565.39657323,1468565.57253443,cake
17,1,84,6,55,victor,hungry,1468565.68424634,1,1468566.87654025,1468567.14052325,1468567.83649239,1468568.09249377,hungry
17,1,85,6,79,danger,pudding,1468568.20081615,0,1468569.78845687,,,0,""
17,1,86,6,15,top,bottom,1468569.90074199,1,1468571.13239946,1468571.35639346,1468572.06835753,1468572.30836307,bottom
17,1,87,6,23,inexpensive,cheap,1468572.41729882,1,1468573.49233367,1468573.66833199,1468574.08431504,1468574.34830529,cheap
17,1,88,6,22,table,chair,1468574.46719014,0,1468575.86828998,,,0,""
18,1,9,1,91,tall,short,1470316.84635697,0,1470321.80251704,,,0,""
18,1,10,1,79,squad,pudding,1470321.9125571,1,1470326.15429563,1470328.3541994,1470330.00210176,1470330.39408151,pudding
18,1,11,1,77,chlorine,pool,1470330.51169098,0,1470334.85780662,,,0,""
18,1,12,1,116,exhausted,tired,1470334.97792413,0,1470338.57761824,,,0,""
18,1,13,1,57,permission,jeans,1470338.69420083,0,1470346.13723947,,,0,""
18,1,14,1,58,peanutbutter,jelly,1470346.26006938,0,1470347.25719761,,,0,""
18,1,15,1,45,wall,flag,1470347.37670509,1,1470349.71305629,1470351.00095836,1470351.78493839,1470351.98493694,flag
18,1,16,1,92,boom,sick,1470352.09289607,1,1470354.08077903,1470362.96031349,1470365.04822546,1470365.28021615,slip
18,1,25,2,4,union,answer,1470669.80986399,1,1470673.95184276,1470675.12785928,1470675.99175083,1470676.76773252,answer
18,1,26,2,44,done,finish,1470676.87578129,0,1470678.7596877,,,0,""
18,1,27,2,28,territory,corn,1470678.87559898,0,1470681.71148216,,,0,""
18,1,28,2,65,arithmetic,math,1470681.8252784,0,1470682.55950623,,,0,""
18,1,29,2,39,month,drunk,1470682.67518961,1,1470685.07130859,1470685.46327506,1470686.24726202,1470686.69518606,drunk
18,1,30,2,23,inexpensive,cheap,1470686.80808883,0,1470688.19919564,,,0,""
18,1,31,2,63,leather,lose,1470688.30792598,1,1470690.55104939,1470691.28700045,1470691.75091935,1470691.92693104,lose
18,1,32,2,40,quack,duck,1470692.04086885,0,1470692.84690753,,,0,""
18,1,41,3,41,theft,eggs,1470989.12620305,1,1470992.3751035,1470992.68707,1470994.27093255,1470995.6468794,window
18,1,42,3,99,circus,spaghetti,1470995.75887875,1,1470999.3827206,1471000.27068473,1471001.82256238,1471002.31056322,spaghetti
18,1,43,3,89,deputy,sheriff,1471002.4247428,1,1471004.65439659,1471005.03037182,1471006.4223238,1471006.66232128,sherif
18,1,44,3,94,navy,smell,1471006.77434628,1,1471008.65414395,1471008.9261894,1471012.93389404,1471013.11793456,smwell
18,1,45,3,19,kindness,cake,1471013.24028333,1,1471014.78190664,1471015.2298509,1471015.6938371,1471016.52578179,cake
18,1,46,3,120,pane,window,1471016.63993421,0,1471017.94172697,,,0,""
18,1,47,3,30,adorable,cute,1471018.05650542,0,1471019.53364067,,,0,""
18,1,48,3,85,boulder,rock,1471019.6562937,1,1471021.64550087,1471022.46945537,1471022.8534567,1471023.02940652,rock
18,1,57,4,8,buckle,belt,1471299.37668517,0,1471302.11870004,,,0,""
18,1,58,4,37,sketch,draw,1471302.22636547,0,1471303.0786,,,0,""
18,1,59,4,9,audience,bird,1471303.19288402,0,1471308.40636003,,,0,""
18,1,60,4,31,doe,deer,1471308.52571901,0,1471309.41430977,,,0,""
18,1,61,4,18,action,butter,1471309.52556476,0,1471312.43815386,,,0,""
18,1,62,4,75,bluff,pizza,1471312.55856869,0,1471313.35805851,,,0,""
18,1,63,4,115,spool,thread,1471313.47515575,0,1471314.7980156,,,0,""
18,1,64,4,70,lieutenant,movie,1471314.90831887,1,1471318.74185851,1471319.29375941,1471320.54168942,1471320.86171916,movie
18,1,73,5,113,quiz,test,1471584.629717,0,1471588.33558088,,,0,""
18,1,74,5,29,mate,cracker,1471588.44592037,0,1471590.95941247,,,0,""
18,1,75,5,102,postage,stamp,1471591.0789924,0,1471591.84739653,,,0,""
18,1,76,5,33,garbage,dirt,1471591.96226976,1,1471593.63132101,1471594.05525909,1471594.83118343,1471595.05518725,dirt
18,1,77,5,117,front,train,1471595.16189251,1,1471596.92708951,1471597.19908154,1471597.98304376,1471598.18303174,train
18,1,78,5,54,saddle,horse,1471598.2949019,0,1471599.75899677,,,0,""
18,1,79,5,7,medal,beer,1471599.87812,0,1471604.30271943,,,0,""
18,1,80,5,81,jigsaw,puzzle,1471604.41096018,0,1471605.4387002,,,0,""
18,1,89,6,6,buzz,bear,1471866.51651691,1,1471869.04875671,1471869.25670047,1471870.3766402,1471870.51261523,lighting
18,1,90,6,87,fright,scare,1471870.63272701,1,1471872.80054628,1471873.02451419,1471873.62450441,1471873.72844776,scare
18,1,91,6,22,soccer,chair,1471873.84906695,0,1471876.93631455,,,0,""
18,1,92,6,36,upstairs,downstairs,1471877.04873256,1,1471879.78416294,1471881.00010866,1471882.16801064,1471882.28798961,downstar
18,1,93,6,52,migraine,headache,1471882.39814256,1,1471885.6878539,1471886.07180573,1471887.51973671,1471887.63970209,headache
18,1,94,6,76,airport,plane,1471887.7475939,0,1471889.06363685,,,0,""
18,1,95,6,93,debate,small,1471889.18077695,0,1471891.63954422,,,0,""
18,1,96,6,97,massage,soup,1471891.74714838,0,1471892.74350297,,,0,""
19,1,1,1,102,postage,stamp,164690.864156159,1,164695.146046897,164695.569994105,164696.593954172,164697.041900083,mail
19,1,2,1,52,novel,headache,164697.163788599,1,164701.649699707,164705.241479971,164706.649384578,164707.201414821,headache
19,1,3,1,110,rip,tear,164707.313105714,0,164710.8812344,,,0,""
19,1,4,1,20,trailer,candle,164710.996240487,1,164714.041084792,164714.721043222,164715.688956811,164715.968950738,candle
19,1,5,1,88,appeal,scratch,164716.079194574,0,164719.112853611,,,0,""
19,1,6,1,61,mower,lawn,164719.229004002,1,164723.328633665,164724.216595345,164724.616515476,164724.93649547,yard
19,1,7,1,18,margarine,butter,164725.045244857,1,164729.560328942,164730.016295248,164730.880258225,164731.696170971,butter
19,1,8,1,80,squad,push,164731.811492489,1,164734.584054171,164735.02405213,164735.959946018,164736.351937817,push
19,1,17,2,84,umbrella,rain,165053.356824128,1,165061.239779965,165061.43172039,165062.623645421,165063.063643682,rain
19,1,18,2,28,retreat,corn,165063.172805394,1,165069.135376883,165069.63935599,165070.071312727,165070.455324276,corn
19,1,19,2,79,scar,pudding,165070.572341574,1,165072.51922634,165073.087175125,165074.135073827,165074.447073873,pudding
19,1,20,2,66,customer,minus,165074.555406107,1,165076.81501475,165077.294987004,165078.422872932,165078.966850482,minus
19,1,21,2,12,row,boat,165079.088444395,1,165083.73465927,165084.1986016,165084.942549025,165085.174534981,boat
19,1,22,2,73,theft,orange,165085.288030622,1,165087.318489168,165092.510219809,165093.774123744,165094.566083366,student
19,1,23,2,39,intoxicated,drunk,165094.687427651,1,165097.157972598,165097.549953531,165098.349880423,165099.437856048,drunk
19,1,24,2,90,blouse,shirt,165099.553743832,0,165104.733606123,,,0,""
19,1,33,3,77,chlorine,pool,165423.16564285,0,165427.669531403,,,0,""
19,1,34,3,118,state,uncle,165427.782024004,1,165433.973181737,165434.493173865,165435.589067861,165436.501043638,uncle
19,1,35,3,38,navy,drug,165436.614767778,1,165439.916914006,165440.372891179,165441.212818928,165441.596807538,drugs
19,1,36,3,4,question,answer,165441.714409213,0,165444.756621407,,,0,""
19,1,37,3,78,rich,poor,165444.864213208,1,165447.292549282,165447.628500339,165448.732420767,165449.356398824,poor
19,1,38,3,6,grizzly,bear,165449.480580477,1,165451.868296302,165452.276267013,165452.892218034,165453.188199626,bear
19,1,39,3,58,substance,jelly,165453.296982519,1,165458.228025412,165459.467950566,165461.019806039,165461.643811564,jelly
19,1,40,3,57,soda,jeans,165461.763088192,1,165463.971696043,165464.803632073,165465.39558922,165465.73957003,jeans
19,1,49,4,13,marrow,bone,165771.559245912,1,165776.332102499,165777.364095639,165778.755970321,165779.075953333,bone
19,1,50,4,115,spool,thread,165779.192083199,1,165780.923886084,165781.419856266,165782.555778889,165782.803767904,thread
19,1,51,4,7,print,beer,165782.925159277,0,165788.419545967,,,0,""
19,1,52,4,55,starving,hungry,165788.541453801,1,165790.347397122,165790.74739513,165792.195302405,165792.507305469,hungry
19,1,53,4,82,shower,queen,165792.624526816,0,165796.835120221,,,0,""
19,1,54,4,81,jigsaw,puzzle,165796.957600057,1,165798.603018658,165798.995024041,165800.59492431,165801.018841635,puzzle
19,1,55,4,117,interest,train,165801.140640503,1,165803.258831686,165803.650765531,165804.68268019,165805.010663977,train
19,1,56,4,45,click,flag,165805.123698093,1,165808.178555592,165808.498510533,165809.026460271,165809.56244429,bait
19,1,65,5,5,teller,bank,166112.486709193,1,166115.243267513,166115.755194874,166117.123140279,166117.707104499,bank
19,1,66,5,95,sweetheart,snake,166117.819641773,1,166120.458978143,166120.722971425,166121.418896692,166121.794908976,snake
19,1,67,5,74,branch,pepper,166121.902692753,1,166123.706814423,166124.914765152,166125.658725255,166126.010680277,pepper
19,1,68,5,85,medal,rock,166126.119089181,0,166132.70638761,,,0,""
19,1,69,5,56,wife,husband,166132.81869216,1,166135.098246899,166135.802227274,166137.138109208,166137.378121596,husband
19,1,70,5,30,shoe,cute,166137.485006168,0,,,,0,""
19,1,71,5,94,odor,smell,166147.601030085,0,166152.217404599,,,0,""
19,1,72,5,26,chill,cold,166152.33405002,1,166155.121245882,166155.713220839,166156.177194863,166156.361163188,cold
19,1,81,6,54,saddle,horse,166455.063956698,1,166460.234069007,166461.298009707,166462.36993126,166462.721886886,horse
19,1,82,6,9,chirp,bird,166462.83011619,1,166464.489849315,166464.857804076,166465.497748065,166465.721764336,bird
19,1,83,6,86,pirate,rules,166465.829927234,1,166469.337608503,166469.713557399,166470.497487873,166470.705524628,rules
19,1,84,6,53,low,high,166470.812933208,1,166472.673416484,166473.057378833,166473.545347335,166474.353318166,high
19,1,85,6,33,warehouse,dirt,166474.462696303,1,166477.281203732,166477.80918275,166478.345111531,166478.601100416,dirt
19,1,86,6,25,cell,clothes,166478.712411283,1,166482.344966342,166482.488921737,166483.184868737,166483.448874093,shirt
19,1,87,6,10,plasma,blood,166483.56213882,0,166486.904713925,,,0,""
19,1,88,6,34,judgment,dirty,166487.028527928,1,166489.9605639,166490.328533452,166492.872386338,166493.976339064,dirty
20,1,9,1,40,quack,duck,165203.205079871,1,165205.692843984,165205.876768795,165206.180762947,165206.580748277,duck
20,1,10,1,24,cathedral,church,165206.68831535,1,165208.37265324,165208.532636023,165209.804543667,165210.036556885,church
20,1,11,1,85,boulder,rock,165210.154845017,1,165211.620529811,165211.772460178,165212.132478639,165212.500469224,stone
20,1,12,1,111,leather,teeth,165212.621447129,1,165218.420210395,165218.852182622,165219.732100604,165219.860105846,teeth
20,1,13,1,11,sofa,board,165219.97112003,1,165221.820030312,165222.052034777,165223.547913185,165224.635875794,board
20,1,14,1,88,cell,scratch,165224.75428044,1,165227.003821102,165227.22776319,165228.971702598,165229.187664715,scratch
20,1,15,1,95,shower,snake,165229.304043956,0,165231.939578058,,,0,""
20,1,16,1,90,blouse,shirt,165232.053981398,1,165234.107481952,165234.331471129,165234.803485386,165235.411395208,shirt
20,1,25,2,27,neighbor,copy,165398.597394624,0,165403.155603261,,,0,""
20,1,26,2,48,backward,forward,165403.263862171,1,165407.923353997,165408.291308963,165409.083267958,165409.627244131,forward
20,1,27,2,28,cob,corn,165409.746970874,1,165412.403138139,165412.659074973,165413.019060231,165413.427084695,corn
20,1,28,2,68,trailer,mistake,165413.546797854,1,165418.186824972,165418.778824354,165420.026766124,165420.38668588,mistake
20,1,29,2,23,moonlight,cheap,165420.496515912,1,165422.226662952,165422.458647495,165422.930614965,165423.322599194,cheap
20,1,30,2,72,judgment,nephew,165423.429705948,1,165425.314525348,165425.602501299,165426.75441929,165427.098427701,nephew
20,1,31,2,63,win,lose,165427.212911937,1,165429.234338358,165429.434320006,165429.786304464,165431.874204893,lose
20,1,32,2,101,rectangle,square,165431.996072044,1,165433.234151212,165433.722129337,165434.426095537,165434.738056681,square
20,1,41,3,119,front,west,165597.92286953,1,165599.562365696,165599.762341307,165600.026300673,165601.514261894,back
20,1,42,3,61,month,lawn,165601.622692556,0,,,,0,""
20,1,43,3,26,chill,cold,165611.638938652,0,165620.66539357,,,0,""
20,1,44,3,75,pepperoni,pizza,165620.788654658,1,165622.00131123,165622.233298792,165622.841276832,165623.041247311,pizza
20,1,45,3,81,jigsaw,puzzle,165623.155192143,1,165624.097184688,165624.297197426,165625.033148713,165625.297108079,puzzle
20,1,46,3,32,boom,defense,165625.405089892,0,165634.488740292,,,0,""
20,1,47,3,13,marrow,bone,165634.604750976,1,165636.600641911,165636.82455472,165637.17659653,165637.368579491,bone
20,1,48,3,53,state,high,165637.48794643,1,165639.240514483,165639.488484928,165639.784455038,165639.944432387,high
20,1,57,4,29,link,cracker,165803.131423074,0,165808.160612137,,,0,""
20,1,58,4,25,scar,clothes,165808.281220579,0,165814.368318694,,,0,""
20,1,59,4,17,comb,brush,165814.480996668,1,165815.920255219,165816.088214351,165816.576177081,165816.968169158,brush
20,1,60,4,100,cobweb,spider,165817.080873091,1,165818.536110904,165818.752087208,165819.464058131,165819.680037453,spider
20,1,61,4,64,appeal,loud,165819.797427586,1,165823.271889835,165824.551799184,165825.079784021,165825.415807631,loud
20,1,62,4,79,tapioca,pudding,165825.530495011,1,165832.11947651,165833.303392567,165835.159312679,165835.535295007,starch
20,1,63,4,78,claim,poor,165835.646811769,0,165844.390883991,,,0,""
20,1,64,4,52,migraine,headache,165844.513120303,1,165848.870712806,165849.190660562,165850.294574664,165851.158573753,head
20,1,73,5,6,grizzly,bear,166014.356436725,1,166017.4228238,166017.670766777,166017.958729145,166018.350739937,bear
20,1,74,5,120,pane,window,166018.472926745,0,166021.582576574,,,0,""
20,1,75,5,55,soda,hungry,166021.689452112,0,,,,0,""
20,1,76,5,9,chirp,bird,166031.805753476,1,166033.406073617,166033.678034688,166034.06997364,166036.149934242,bird
20,1,77,5,1,flight,airplane,166036.272222774,1,166037.253877019,166037.661836586,166038.757748378,166038.989763408,airplane
20,1,78,5,86,post,rules,166039.105444775,0,,,,0,""
20,1,79,5,37,sailor,draw,166049.12172166,0,166052.333166914,,,0,""
20,1,80,5,99,policeman,spaghetti,166052.454920268,1,166056.308976766,166056.532929118,166056.924875314,166058.484889911,plate
20,1,89,6,65,arithmetic,math,166221.681577183,1,166223.373160044,166224.637103412,166224.957067166,166225.277047522,math
20,1,90,6,42,substance,elephant,166225.398126245,0,166228.476915977,,,0,""
20,1,91,6,44,done,finish,166228.597974475,1,166230.020829969,166230.204842014,166232.532706052,166234.300629445,finish
20,1,92,6,104,yard,steak,166234.414410072,0,166237.620486948,,,0,""
20,1,93,6,87,circus,scare,166237.730950561,0,166240.556332346,,,0,""
20,1,94,6,69,chimpanzee,monkey,166240.664109808,1,166242.404231435,166242.668245134,166243.716214009,166244.060143336,monkey
20,1,95,6,117,writer,train,166244.180684466,0,166247.732022727,,,0,""
20,1,96,6,41,omelet,eggs,166247.847208157,1,166248.875964369,166249.083933534,166249.587897259,166249.763900355,eggs
21,1,1,1,22,turtle,chair,1471883.74279301,1,1471886.54726987,1471887.45922875,1471887.91515128,1471888.2831625,chair
21,1,2,1,115,kindness,thread,1471888.39261865,0,1471889.8511326,,,0,""
21,1,3,1,8,buckle,belt,1471889.95891346,0,1471891.34709032,,,0,""
21,1,4,1,53,low,high,1471891.45913608,0,1471894.14701432,,,0,""
21,1,5,1,67,reflection,mirror,1471894.25904135,1,1471900.85081626,1471903.01876897,1471903.76267794,1471904.30670982,mirror
21,1,6,1,70,bluff,movie,1471904.42527954,1,1471907.41862698,1471907.98660252,1471908.40257137,1471908.65855283,movie
21,1,7,1,66,plus,minus,1471908.775079,1,1471911.73848586,1471912.37847438,1471913.06640544,1471914.81040587,minus
21,1,8,1,27,thief,copy,1471914.92482872,0,1471916.81832561,,,0,""
21,1,17,2,78,cell,poor,1472080.00122221,1,1472082.31752826,1472082.73348052,1472083.15745454,1472083.45342681,poor
21,1,18,2,93,coast,small,1472083.56773375,1,1472085.54140847,1472085.95737793,1472087.14932018,1472087.48531043,small
21,1,19,2,3,sailor,animal,1472087.60086554,1,1472089.24529493,1472090.08527976,1472090.70923591,1472091.13321446,animal
21,1,20,2,41,click,eggs,1472091.2507289,0,1472097.32507371,,,0,""
21,1,21,2,44,done,finish,1472097.43382351,0,1472103.3329047,,,0,""
21,1,22,2,86,regulations,rules,1472103.45018218,0,1472104.95682131,,,0,""
21,1,23,2,50,ghoul,ghost,1472105.06678487,0,1472106.60479477,,,0,""
21,1,24,2,18,margarine,butter,1472106.71671555,1,1472108.98071576,1472109.28467871,1472109.9566725,1472110.14866485,butter
21,1,33,3,114,thick,thin,1472273.34304186,1,1472275.46384439,1472275.75182146,1472276.09572602,1472276.36779388,thin
21,1,34,3,38,tragedy,drug,1472276.47624063,0,1472281.39966029,,,0,""
21,1,35,3,62,thunder,lightning,1472281.50934766,0,1472289.71141439,,,0,""
21,1,36,3,108,dream,sweat,1472289.8256341,1,1472291.97533159,1472292.23135592,1472292.81531341,1472293.0632879,sweat
21,1,37,3,45,banner,flag,1472293.17549786,0,1472294.79127226,,,0,""
21,1,38,3,97,broth,soup,1472294.90879273,1,1472297.25520509,1472297.75117368,1472298.15914945,1472298.59114433,soup
21,1,39,3,91,front,short,1472298.70861621,0,1472301.20705517,,,0,""
21,1,40,3,46,illness,flowers,1472301.32518509,0,1472303.38300822,,,0,""
21,1,49,4,33,soil,dirt,1472466.56818502,1,1472468.84218143,1472469.41815126,1472469.84212438,1472470.05811533,dirt
21,1,50,4,54,saddle,horse,1472470.16802516,1,1472471.7780589,1472472.20205949,1472472.72204056,1472473.00202816,horse
21,1,51,4,119,east,west,1472473.11789296,1,1472475.91385422,1472476.71392612,1472477.17788492,1472477.47390096,west
21,1,52,4,43,audience,fall,1472477.58437586,0,1472485.68165251,,,0,""
21,1,53,4,82,king,queen,1472485.80071515,1,1472487.48162872,1472487.86560831,1472488.40956955,1472488.68157131,queen
21,1,54,4,32,scar,defense,1472488.80054128,1,1472490.67352177,1472490.84951104,1472491.88145443,1472492.22544471,defense
21,1,55,4,23,driver,cheap,1472492.33374446,1,1472493.78541991,1472494.12940537,1472494.7293904,1472495.01736505,cheap
21,1,56,4,24,territory,church,1472495.13360868,1,1472496.32133374,1472496.62535283,1472497.31329205,1472497.59329112,church
21,1,65,5,40,dressing,duck,1472660.77661574,1,1472663.26047244,1472663.56444717,1472664.01240982,1472664.31638333,duck
21,1,66,5,13,class,bone,1472664.42643836,0,1472665.9323639,,,0,""
21,1,67,5,35,retreat,disappear,1472666.04305493,1,1472667.64434548,1472667.86832016,1472669.69226267,1472670.45221547,disappear
21,1,68,5,103,astronomy,star,1472670.55949555,0,1472673.12417303,,,0,""
21,1,69,5,94,odor,smell,1472673.24275966,1,1472674.49212901,1472674.66809836,1472675.28410126,1472675.52409564,smell
21,1,70,5,57,claim,jeans,1472675.64263819,0,1472676.95604766,,,0,""
21,1,71,5,36,upstairs,downstairs,1472677.0759244,1,1472680.27600735,1472680.44397667,1472682.63583199,1472683.07585588,downstairs
21,1,72,5,80,shove,push,1472683.19230568,1,1472684.75580322,1472684.95582398,1472685.58779466,1472685.89178508,push
21,1,81,6,64,barrel,loud,1472849.0852852,0,1472851.44697016,,,0,""
21,1,82,6,77,chlorine,pool,1472851.56850287,0,1472854.80679177,,,0,""
21,1,83,6,72,niece,nephew,1472854.91830596,1,1472855.9427842,1472856.23077817,1472857.00677239,1472857.52673052,nephew
21,1,84,6,9,salesman,bird,1472857.63489353,0,1472859.95066832,,,0,""
21,1,85,6,56,customer,husband,1472860.06816072,0,1472863.71859218,,,0,""
21,1,86,6,120,plenty,window,1472863.83465892,0,1472866.35049101,,,0,""
21,1,87,6,85,boulder,rock,1472866.46789286,1,1472868.30249081,1472868.60643987,1472868.99842644,1472869.34238201,rock
21,1,88,6,92,ill,sick,1472869.45110042,1,1472874.47023102,1472875.42223112,1472876.30216601,1472876.55016042,health
22,1,9,1,4,medal,answer,1539355.23588584,1,1539358.8892486,1539381.20858406,1539401.21601812,1539403.42392331,winner
22,1,10,1,3,union,animal,1539403.53382711,0,,,,0,""
22,1,11,1,100,cobweb,spider,1539413.55007349,1,1539417.12754836,1539417.95150174,1539418.62345598,1539418.91944485,spider
22,1,12,1,82,novel,queen,1539419.03314326,1,1539420.61543572,1539420.8634256,1539421.30344014,1539421.51139121,queen
22,1,13,1,110,rip,tear,1539421.63309387,1,1539426.39125879,1539427.06325439,1539427.32721898,1539427.68720843,tear
22,1,14,1,35,vanish,disappear,1539427.79947997,1,1539429.36719289,1539429.53518726,1539430.6391391,1539432.44707852,disappear
22,1,15,1,42,tusk,elephant,1539432.56591327,1,1539436.70295947,1539436.95894455,1539439.04686191,1539440.21487168,elephant
22,1,16,1,52,center,headache,1539440.33226387,1,1539441.8468182,1539442.13479497,1539442.92675455,1539443.8227532,headache
22,1,25,2,24,post,church,1539754.18555834,1,1539757.18960892,1539757.43754839,1539757.96552647,1539758.4774737,church
22,1,26,2,80,ashes,push,1539758.58537953,0,1539767.61327233,,,0,""
22,1,27,2,32,offense,defense,1539767.73501061,0,1539774.1890511,,,0,""
22,1,28,2,116,soda,tired,1539774.301383,1,1539776.18900521,1539776.57299054,1539777.02096255,1539777.19694759,tired
22,1,29,2,102,weed,stamp,1539777.31791494,1,1539779.33290078,1539779.71688519,1539780.06887763,1539780.34887247,stamp
22,1,30,2,23,inexpensive,cheap,1539780.46777725,1,1539784.44476481,1539784.6607449,1539784.93270801,1539785.20471278,cheap
22,1,31,2,25,wardrobe,clothes,1539785.31756056,0,,,,0,""
22,1,32,2,16,respiration,breathe,1539795.33384618,1,1539797.20439825,1539797.40437193,1539797.83635927,1539798.18034985,breath
22,1,41,3,90,sweetheart,shirt,1540252.64767674,1,1540254.4790038,1540254.75888967,1540255.14291092,1540255.65492968,shirt
22,1,42,3,109,wealth,tail,1540255.76419143,0,1540263.49473552,,,0,""
22,1,43,3,95,cobra,snake,1540263.61386276,1,1540266.94263689,1540267.0865883,1540267.47059264,1540267.78256588,snake
22,1,44,3,68,error,mistake,1540267.89701319,1,1540270.95051951,1540271.17445465,1540272.55044356,1540272.79043642,mistake
22,1,45,3,12,row,boat,1540272.89678136,1,1540279.28625469,1540279.53422525,1540279.8142373,1540280.43021545,boat
22,1,46,3,89,claim,sheriff,1540280.54648414,1,1540283.82214678,1540283.99011791,1540284.73408724,1540285.19804755,sheriff
22,1,47,3,115,fraud,thread,1540285.31293344,0,1540290.29394291,,,0,""
22,1,48,3,8,buckle,belt,1540290.41273177,1,1540291.47790535,1540291.63789486,1540292.14184658,1540292.36583998,belt
22,1,57,4,61,gold,lawn,1540584.71682211,1,1540588.51721488,1540589.86116351,1540590.18111687,1540590.46910571,lawn
22,1,58,4,28,cob,corn,1540590.58324542,1,1540594.01302258,1540594.27703185,1540594.51699936,1540594.74891219,corn
22,1,59,4,119,east,west,1540594.86639826,1,1540596.57296186,1540596.75693547,1540597.88488107,1540598.18885459,west
22,1,60,4,83,alarm,rabbit,1540598.29956554,1,1540601.66879655,1540601.87677358,1540602.43674878,1540602.61273896,rabbit
22,1,61,4,43,stumble,fall,1540602.73269509,1,1540604.31671477,1540604.43675029,1540604.70070462,1540605.18869612,fall
22,1,62,4,86,enemy,rules,1540605.29927003,1,1540608.11660314,1540610.22055378,1540610.67652642,1540610.86052961,rules
22,1,63,4,2,campus,angel,1540610.98237264,1,1540612.33249297,1540612.45242707,1540612.75642413,1540612.97250594,angel
22,1,64,4,104,sirloin,steak,1540613.08224281,1,1540614.42041456,1540614.55641212,1540615.08437873,1540615.29236331,steak
22,1,73,5,6,grizzly,bear,1540919.00255097,1,1540920.73943036,1540920.89940296,1540921.18743527,1540921.61939152,bear
22,1,74,5,33,soil,dirt,1540921.73574382,1,1540922.73935097,1540923.01938355,1540923.33936588,1540923.62726658,dirt
22,1,75,5,66,trash,minus,1540923.73565145,1,1540926.67529456,1540927.52324471,1540928.05122913,1540928.35521714,minus
22,1,76,5,1,flight,airplane,1540928.4688123,1,1540931.35514318,1540931.49112836,1540932.61906642,1540935.05904836,airplane
22,1,77,5,14,link,book,1540935.16851265,1,1540936.09101106,1540936.55498918,1540936.8989689,1540937.30690965,book
22,1,78,5,44,customer,finish,1540937.418419,1,1540939.8188937,1540940.27489502,1540940.64283138,1540940.97882616,finish
22,1,79,5,53,low,high,1540941.10160191,1,1540942.28282986,1540942.49878941,1540943.02679014,1540943.52278408,high
22,1,80,5,20,salesman,candle,1540943.63483376,1,1540945.66673247,1540945.92271061,1540946.38668993,1540946.89867489,candle
22,1,89,6,91,tall,short,1541296.70303946,1,1541300.20035794,1541300.40830086,1541300.88026694,1541301.28827681,short
22,1,90,6,13,class,bone,1541301.40287715,1,1541304.53619153,1541304.68819428,1541304.92817236,1541305.24815469,bone
22,1,91,6,114,leather,thin,1541305.36937741,0,1541312.53597932,,,0,""
22,1,92,6,41,port,eggs,1541312.65239471,0,1541319.19977989,,,0,""
22,1,93,6,36,upstairs,downstairs,1541319.31874836,0,1541327.1835157,,,0,""
22,1,94,6,99,meatballs,spaghetti,1541327.30178688,1,1541328.3594603,1541328.535503,1541329.77546085,1541330.07141592,spaghetti
22,1,95,6,70,audience,movie,1541330.18496611,1,1541331.66341751,1541331.94339213,1541338.19918373,1541342.9110663,curtain
22,1,96,6,55,starving,hungry,1541343.0344361,1,1541344.35905038,1541344.51104408,1541344.98296638,1541345.30300698,instant
25,1,1,1,81,jigsaw,puzzle,67974.9813721291,0,67976.9464309485,,,0,""
25,1,2,1,54,trousers,horse,67977.0646027591,0,67978.2903409933,,,0,""
25,1,3,1,59,junk,land,67978.3978648566,0,67979.6662772843,,,0,""
25,1,4,1,2,halo,angel,67979.7811465892,0,67980.4582016149,,,0,""
25,1,5,1,95,cobra,snake,67980.581065332,1,67986.1859234354,67986.3219413337,67987.3858498451,67987.6258376626,stripe
25,1,6,1,31,gold,deer,67987.747449621,0,67989.4897648281,,,0,""
25,1,7,1,93,tiny,small,67989.5973898101,0,67990.2097243565,,,0,""
25,1,8,1,106,cell,street,67990.330668328,1,67994.3214927893,67994.8014723483,67995.9134031746,67996.3373977004,gold
25,1,17,2,77,trailer,pool,68159.5230377016,1,68163.4085752862,68165.1204398874,68165.7524225469,68166.1683828166,park
25,1,18,2,105,pirate,steal,68166.2894285105,0,68168.6322808841,,,0,""
25,1,19,2,88,itch,scratch,68168.7392750063,0,68169.3842343611,,,0,""
25,1,20,2,99,danger,spaghetti,68169.5059166498,0,68170.2562048381,,,0,""
25,1,21,2,100,warehouse,spider,68170.3725326666,0,68171.0641747403,,,0,""
25,1,22,2,22,table,chair,68171.1724541261,0,68171.7120774032,,,0,""
25,1,23,2,117,caboose,train,68171.8224983919,0,68172.6080649236,,,0,""
25,1,24,2,94,odor,smell,68172.7224340684,0,68173.1040094611,,,0,""
25,1,33,3,119,east,west,68336.2984075469,0,68344.9669855074,,,0,""
25,1,34,3,40,quack,duck,68345.0813576706,0,68345.7748974551,,,0,""
25,1,35,3,98,alarm,south,68345.8812987501,0,68346.9588588863,,,0,""
25,1,36,3,44,yard,finish,68347.0812571557,1,68353.2065262898,68353.7504813702,68354.1744641238,68354.9584055124,sale
25,1,37,3,21,credit,card,68355.0808798472,0,68357.4783329847,,,0,""
25,1,38,3,109,wag,tail,68357.597451085,0,68358.0702786861,,,0,""
25,1,39,3,24,chef,church,68358.1807401223,0,68358.6062804054,,,0,""
25,1,40,3,97,denial,soup,68358.7140520849,0,68359.3982050379,,,0,""
25,1,49,4,36,massage,downstairs,68522.5900271632,0,68526.8533598113,,,0,""
25,1,50,4,91,tall,short,68526.9731573687,0,68527.6453082897,,,0,""
25,1,51,4,39,month,drunk,68527.7564549181,0,68528.1412754657,,,0,""
25,1,52,4,34,claim,dirty,68528.2564620115,0,68529.0052246661,,,0,""
25,1,53,4,85,boulder,rock,68529.123033355,0,68529.6772068547,,,0,""
25,1,54,4,113,quiz,test,68529.7897148121,0,68531.0691464588,,,0,""
25,1,55,4,43,stumble,fall,68531.1896376601,0,68531.6290840248,,,0,""
25,1,56,4,7,moonlight,beer,68531.7395874177,0,68532.5090416696,,,0,""
25,1,65,5,71,hammer,nail,68695.6988607397,0,68698.7162763939,,,0,""
25,1,66,5,46,bouquet,flowers,68698.832053352,0,68699.4602309309,,,0,""
25,1,67,5,32,plate,defense,68699.5820215827,0,68700.5721487779,,,0,""
25,1,68,5,29,driver,cracker,68700.6819675823,0,68701.1801340139,,,0,""
25,1,69,5,52,migraine,headache,68701.2986079732,0,68701.8200854287,,,0,""
25,1,70,5,112,employment,television,68701.9319163438,0,68702.3480719084,,,0,""
25,1,71,5,15,revolution,bottom,68702.4652243823,0,68702.844045725,,,0,""
25,1,72,5,56,wife,husband,68702.965195556,0,68703.4519920228,,,0,""
25,1,81,6,45,banner,flag,68866.6411914013,0,68868.5793242797,,,0,""
25,1,82,6,108,perspire,sweat,68868.6910634334,0,68869.1312553597,,,0,""
25,1,83,6,67,salesman,mirror,68869.2410611846,0,68869.5312099015,,,0,""
25,1,84,6,63,win,lose,68869.6410597962,0,68870.1312070642,,,0,""
25,1,85,6,5,shoe,bank,68870.2410421683,0,68873.3470344609,,,0,""
25,1,86,6,62,thunder,lightning,68873.4575381557,0,68873.8029903358,,,0,""
25,1,87,6,13,garbage,bone,68873.9241887641,0,68874.1789885054,,,0,""
25,1,88,6,28,navy,corn,68874.2908456811,0,68874.7869535177,,,0,""
23,1,1,1,55,furniture,hungry,84824.567976885,1,84826.6823738723,84828.4663315254,84830.3302389013,84831.0342456243,hungry
23,1,2,1,33,soil,dirt,84831.1510535397,0,84835.810193816,,,0,""
23,1,3,1,20,wick,candle,84835.9175587534,0,84838.1781436547,,,0,""
23,1,4,1,85,boulder,rock,84838.3008124167,0,84839.4660680047,,,0,""
23,1,5,1,68,fountain,mistake,84839.5841023632,1,84841.8420671498,84842.4900387342,84845.5379261611,84846.7539579429,misktake
23,1,6,1,108,perspire,sweat,84846.867166521,0,84851.8178513127,,,0,""
23,1,7,1,64,clue,loud,84851.93363684,1,84860.4416970133,84861.1536636932,84862.1455796732,84862.4495715448,loud
23,1,8,1,50,strawberry,ghost,84862.5665910617,1,84864.7855909989,84865.3215641481,84866.5214936948,84866.8414830574,ghost
23,1,17,2,112,zenith,television,85030.0271809739,0,85032.2221525269,,,0,""
23,1,18,2,25,branch,clothes,85032.3438115787,1,85036.1020586012,85037.2300074377,85038.853973881,85041.4539629537,clothes
23,1,19,2,52,migraine,headache,85041.5767995479,0,,,,0,""
23,1,20,2,16,respiration,breathe,85051.5930877268,1,85060.3095888955,85061.6215355925,85063.8614508674,85064.4214620603,breathe
23,1,21,2,6,shoe,bear,85064.5425916557,1,85067.4854293849,85068.6373963425,85069.6773376978,85071.1893153652,bear
23,1,22,2,79,month,pudding,85071.3090494779,0,85080.3651615898,,,0,""
23,1,23,2,45,debate,flag,85080.4753546211,1,85086.1890337331,85086.9170114875,85088.3409569215,85089.2209595899,flag
23,1,24,2,35,vanish,disappear,85089.3417064312,1,85093.4448888443,85093.8848658791,85094.82881927,85095.596811429,wall
23,1,33,3,107,pupil,student,85258.7855967342,0,85266.9933401392,,,0,""
23,1,34,3,74,weed,pepper,85267.1019285011,0,,,,0,""
23,1,35,3,53,sweetheart,high,85277.1182453562,0,85277.3371266638,,,0,""
23,1,36,3,60,giggle,laugh,85277.4515550441,0,85284.5929543062,,,0,""
23,1,37,3,47,eternity,forever,85284.7012972587,0,85286.984919851,,,0,""
23,1,38,3,21,substance,card,85287.1012287976,0,85289.8408497624,,,0,""
23,1,39,3,11,chalk,board,85289.951115541,0,85291.9607900431,,,0,""
23,1,40,3,19,alarm,cake,85292.0676916306,0,85299.9686325778,,,0,""
23,1,49,4,15,lieutenant,bottom,85463.1615213207,1,85464.7492812796,85465.7812074382,85467.5491899378,85468.9811605297,bottom
23,1,50,4,54,dream,horse,85469.0946344397,1,85471.125086331,85471.6530385483,85472.9730671522,85473.5970571402,horse
23,1,51,4,119,goose,west,85473.7111495542,0,85478.7889585104,,,0,""
23,1,52,4,58,peanutbutter,jelly,85478.910969527,0,85483.9328613706,,,0,""
23,1,53,4,69,chimpanzee,monkey,85484.0441296148,1,85490.3487339533,85490.8126627007,85492.0846484216,85492.4366726112,style
23,1,54,4,116,exhausted,tired,85492.5437707074,1,85497.7085547954,85498.2285310574,85500.1645100023,85501.6364808116,writer
23,1,55,4,10,instant,blood,85501.7434448834,0,85508.5883681998,,,0,""
